t,ax,ay,az,gx,gy,gz,mx,my,mz,temp
0.24934,-0.11846,0.36048,-9.75830,-0.03805,-0.06795,0.03459,-10.58275,-33.85189,32.98565,28.71680
0.27941,-0.10580,0.35585,-9.79324,0.02299,0.05406,0.03459,-10.59513,-34.57747,34.99151,28.69336
0.28928,-0.10222,0.33966,-9.78668,-0.03802,0.05406,-0.02642,-10.60888,-34.95028,36.61553,28.69531
0.31327,-0.12319,0.34316,-9.76592,-0.09905,0.05406,0.03459,-10.94775,-35.96492,34.62530,28.73047
0.32941,-0.08977,0.35638,-9.78143,0.02296,0.05406,-0.02642,-10.22363,-34.92488,34.61229,28.70703
0.35335,-0.12853,0.36645,-9.76896,-0.03805,0.11506,-0.02642,-10.60107,-34.93856,35.80956,28.68359
0.36965,-0.11776,0.33187,-9.77535,-0.03805,0.05406,-0.08745,-10.22583,-35.98837,35.82240,28.68555
0.39345,-0.10530,0.34679,-9.78260,-0.03805,0.11506,0.03456,-9.87011,-34.59579,35.79652,28.69727
0.41070,-0.11944,0.33382,-9.80378,-0.09905,-0.00695,-0.02645,-10.95605,-34.91854,34.60316,28.65820
0.43368,-0.11466,0.34092,-9.81792,0.14497,-0.06795,0.03456,-10.97487,-34.59335,36.21058,28.69531
0.44936,-0.11175,0.30314,-9.76460,-0.03802,0.11503,0.03456,-10.58595,-35.27011,34.59925,28.68164
0.47401,-0.09984,0.35758,-9.79506,-0.03802,0.05403,0.03456,-9.12990,-35.29855,35.78773,28.70508
0.48936,-0.11777,0.32945,-9.77893,-0.09902,0.11503,0.03456,-10.22657,-35.98947,35.82719,28.67773
0.51337,-0.08797,0.31388,-9.78893,-0.09902,0.11503,0.03456,-10.96779,-33.87814,34.98344,28.69141
0.52941,-0.09814,0.34723,-9.79133,0.02299,0.05403,0.03456,-10.58986,-35.27658,35.00181,28.64844
0.55329,-0.10824,0.34853,-9.76245,-0.03798,-0.00701,0.03456,-10.96339,-34.57687,35.00570,28.69141
0.56942,-0.11452,0.33314,-9.79840,0.02299,-0.00701,0.03456,-10.60450,-34.59146,35.80844,28.69336
0.59348,-0.10648,0.32238,-9.78489,0.02299,0.05403,-0.02639,-9.48829,-34.93057,34.58676,28.69531
0.60940,-0.10802,0.33364,-9.76974,0.02299,0.05403,-0.02639,-10.59376,-35.63662,35.80746,28.71680
0.63339,-0.11465,0.34411,-9.78950,-0.03798,0.05403,-0.02639,-10.59237,-34.92764,35.00131,28.67773
0.65751,-0.10414,0.34015,-9.76713,-0.03798,0.05403,-0.08745,-10.24105,-34.95361,36.60482,28.71289
0.67348,-0.11469,0.34209,-9.79661,-0.09899,-0.00698,0.03456,-10.59237,-34.92764,35.00131,28.68164
0.69746,-0.11237,0.32756,-9.77608,0.02302,0.05403,-0.02645,-10.22884,-34.58194,34.99762,28.68945
0.71339,-0.12358,0.36791,-9.78912,0.02312,-0.00698,-0.02645,-10.59798,-34.22989,34.99024,28.68555
0.74566,-0.11576,0.31713,-9.78575,-0.03795,0.05403,0.03456,-10.22908,-34.93594,35.39527,28.69531
0.85777,-0.10079,0.33714,-9.77877,-0.03805,0.05327,-0.02560,-10.96680,-34.93549,35.80245,28.69141
0.87354,-0.11363,0.33345,-9.79858,-0.09652,-0.00520,0.03372,-9.48828,-34.92978,34.58956,28.67383
0.89742,-0.10996,0.33996,-9.79170,-0.03805,0.11345,-0.02472,-10.22119,-34.56967,34.19381,28.69727
0.91335,-0.10585,0.34138,-9.79446,-0.03805,-0.00514,0.03458,-10.59790,-34.22910,34.98775,28.65625
0.93729,-0.11059,0.34346,-9.80043,0.14335,-0.06703,-0.02560,-10.21778,-35.27206,34.58614,28.66016
0.95336,-0.10798,0.33676,-9.78067,-0.03634,0.05419,0.09384,-10.21951,-35.62729,35.00045,28.64844
0.97745,-0.09803,0.34001,-9.79041,-0.03461,0.05074,0.03455,-9.87087,-34.95053,36.20065,28.68945
0.99598,-0.11096,0.32763,-9.79185,-0.03806,-0.00684,0.02751,-10.23245,-34.58701,35.39254,28.65430
1.01743,-0.12089,0.34906,-9.78231,-0.03634,0.05416,0.03455,-10.96780,-33.87753,34.98580,28.68555
1.03335,-0.11539,0.33747,-9.77124,-0.03634,-0.00343,0.03282,-10.60403,-34.59042,35.80514,28.67773
1.05747,-0.11759,0.34224,-9.77715,-0.09908,0.17260,0.03455,-10.96755,-34.93613,35.80872,28.67383
1.07338,-0.12708,0.35268,-9.79058,-0.04159,-0.06092,0.09204,-9.85427,-34.57236,34.18470,28.64648
1.09830,-0.10923,0.32807,-9.78078,0.02122,0.05236,-0.08581,-9.84490,-35.61826,34.19031,28.68750
1.11324,-0.12619,0.33435,-9.77013,0.02294,0.05408,0.02747,-11.32732,-34.92197,35.01209,28.69336
1.13745,-0.10939,0.33862,-9.78568,0.08044,0.11158,-0.01947,-10.59587,-34.57822,34.99344,28.67578
1.15343,-0.10131,0.33398,-9.79948,-0.03809,0.06873,0.01987,-10.60947,-33.89218,35.78885,28.67578
1.17782,-0.10388,0.33084,-9.77421,0.02291,0.11158,-0.02649,-10.23081,-34.93613,35.40409,28.66797
1.19919,-0.11729,0.33869,-9.78902,-0.03809,0.05408,-0.02649,-9.87314,-35.30551,36.61600,28.68555
1.21758,-0.10456,0.32968,-9.76791,0.01574,0.00025,-0.12701,-9.86441,-34.93930,35.40604,28.66211
1.24134,-0.10104,0.34577,-9.78331,-0.03092,0.10077,0.02728,-9.85311,-35.27597,34.59940,28.69336
1.25728,-0.11781,0.35194,-9.79171,-0.05274,0.00776,-0.02655,-10.60555,-34.59091,35.81717,28.67188
1.28147,-0.11864,0.32614,-9.78712,0.08398,0.05411,0.00458,-9.49422,-35.29013,35.39652,28.65820
1.30354,-0.11769,0.33847,-9.79554,0.02297,0.05411,0.03447,-10.60359,-34.23544,35.39684,28.66602
1.32145,-0.10269,0.33896,-9.77944,-0.00693,0.02422,0.06558,-9.48738,-35.63290,34.99889,28.66211
1.33746,-0.12190,0.33663,-9.78426,0.02296,0.05411,0.03447,-10.58895,-34.92050,34.59020,28.68750
1.36133,-0.09627,0.35577,-9.78442,-0.16002,0.05411,0.03447,-10.97103,-34.58701,35.80309,28.68359
1.37741,-0.11354,0.36299,-9.79033,-0.03802,-0.00689,0.09547,-10.59871,-33.17001,34.15856,28.68359
1.40395,-0.14095,0.33495,-9.80315,-0.03802,-0.00689,0.03447,-10.23006,-34.93466,35.39196,28.69141
1.41742,-0.10411,0.33291,-9.75701,0.02299,-0.00689,0.03447,-9.48982,-35.28329,34.98669,28.64648
1.44140,-0.09804,0.34561,-9.79146,-0.03805,0.05411,0.03447,-10.96053,-34.92368,35.00179,28.68359
1.45748,-0.11833,0.34684,-9.78903,-0.03805,0.11515,-0.02645,-10.60594,-34.24065,35.79334,28.66992
1.48152,-0.09504,0.34745,-9.79623,0.02299,0.11515,-0.08745,-10.23240,-34.58635,35.39197,28.67969
1.49804,-0.12248,0.34566,-9.78723,-0.03802,0.05415,-0.02645,-10.96385,-34.22527,34.97962,28.64062
1.52157,-0.12487,0.32896,-9.79487,0.02299,0.05415,0.03456,-10.24608,-33.90032,36.18763,28.69922
1.53737,-0.11121,0.35696,-9.78252,-0.03802,0.05415,0.03456,-11.32322,-35.26946,35.01184,28.64062
1.56143,-0.11779,0.35165,-9.79252,-0.03802,0.05415,0.03456,-10.96190,-34.57463,34.99702,28.72852
1.57745,-0.10701,0.34688,-9.79329,-0.03802,0.05415,0.03456,-9.86619,-33.88420,34.96348,28.68555
1.60175,-0.11062,0.35512,-9.77488,0.02299,0.05415,0.03456,-10.60252,-34.58831,35.78819,28.68359
1.61737,-0.10227,0.35275,-9.77670,0.02299,-0.00686,-0.02645,-9.48924,-35.28362,34.99278,28.66602
1.64158,-0.12001,0.33378,-9.80902,-0.03802,0.05415,0.03456,-10.59959,-34.58342,35.39634,28.66797
1.65739,-0.11710,0.35565,-9.77792,-0.09905,0.11518,-0.02645,-10.60429,-34.94378,36.20250,28.68164
1.68157,-0.11169,0.34396,-9.80795,-0.03805,0.05418,0.09556,-10.58878,-34.92060,34.59507,28.69922
1.69741,-0.10403,0.33199,-9.79078,-0.03805,0.05418,0.03456,-10.96989,-34.58612,35.79722,28.69141
1.72181,-0.11996,0.36167,-9.76490,-0.03805,-0.00686,-0.02645,-9.86149,-34.58270,34.97935,28.69141
1.74567,-0.10331,0.34914,-9.78727,0.02299,0.05418,0.03456,-9.86027,-34.22796,34.57066,28.67188
1.76142,-0.10048,0.35389,-9.79034,0.02299,0.05418,-0.02645,-10.95793,-35.62738,35.41050,28.68750
1.77738,-0.11669,0.33718,-9.76464,0.02299,-0.00683,0.03456,-11.33244,-34.22308,34.99449,28.72266
1.80159,-0.10693,0.33023,-9.78175,-0.09890,0.05424,0.03456,-10.22697,-34.92962,34.99988,28.67969
1.81767,-0.09519,0.33799,-9.78804,-0.16003,0.05424,0.03456,-10.22925,-34.58026,34.98875,28.63477
1.84130,-0.10341,0.34065,-9.78696,-0.03820,0.05363,-0.02645,-9.84937,-35.26922,34.19529,28.65234
1.86555,-0.10834,0.33146,-9.78884,0.02302,-0.00658,-0.02635,-11.32886,-34.21746,34.59690,28.64648
1.88165,-0.12719,0.33035,-9.78787,0.02302,-0.00673,-0.02635,-10.95874,-34.56878,34.59313,28.64453
1.90570,-0.10616,0.33885,-9.79510,-0.03799,0.05424,0.03462,-10.58911,-34.92059,34.59490,28.66406
1.92153,-0.11063,0.33096,-9.77139,-0.03808,0.05414,-0.02638,-10.22803,-35.28460,35.40887,28.64453
1.94589,-0.10927,0.33399,-9.80472,-0.03794,0.05429,0.09563,-10.21880,-34.91790,34.19402,28.65820
1.96146,-0.11766,0.34298,-9.77023,-0.03794,0.05429,-0.02632,-10.60454,-34.58978,35.80535,28.68359
1.98546,-0.11626,0.33034,-9.80076,0.02288,-0.00653,-0.02596,-10.61428,-35.66204,37.45867,28.65820
2.00142,-0.12047,0.34105,-9.78479,-0.03708,0.11444,0.03382,-10.95266,-34.91253,34.20086,28.66211
2.02533,-0.09511,0.33825,-9.77248,-0.09885,-0.00665,-0.02645,-10.23733,-34.59246,35.79559,28.70508
2.04129,-0.11053,0.34410,-9.80315,-0.03794,-0.00592,0.03425,-10.21502,-34.91229,33.79168,28.69141
2.06554,-0.10999,0.33376,-9.78118,-0.03805,-0.00692,0.03459,-11.32960,-34.57270,35.00528,28.66602
2.08145,-0.10267,0.32923,-9.78026,0.02299,0.05326,-0.02727,-9.85987,-34.93280,34.99578,28.66211
2.10559,-0.11228,0.33568,-9.78879,-0.03801,0.05238,0.03459,-10.60059,-34.93819,35.79852,28.68359
2.12204,-0.11147,0.33243,-9.76781,-0.03450,-0.00340,-0.02642,-10.20875,-35.96358,34.19305,28.63477
2.14548,-0.11822,0.34464,-9.78124,-0.03801,0.11342,-0.02469,-10.59644,-34.93233,35.39520,28.68164
2.16147,-0.11969,0.34872,-9.78667,0.02299,0.05412,-0.02642,-11.33765,-34.58419,35.80608,28.65820
2.18540,-0.10881,0.31791,-9.79769,-0.03801,-0.00337,-0.08040,-10.60084,-34.58468,35.40667,28.67383
2.20141,-0.11563,0.33356,-9.79912,0.02299,0.05061,-0.03347,-9.86597,-34.58946,35.38784,28.67578
2.22527,-0.11457,0.35404,-9.77276,-0.03801,0.05413,0.03459,-10.21339,-34.55760,33.38198,28.69922
2.24134,-0.09824,0.34736,-9.77532,-0.03629,-0.00516,0.03459,-10.95753,-35.62693,35.41128,28.66406
2.26557,-0.10709,0.33954,-9.79152,-0.05266,0.00776,0.03459,-11.31739,-34.90818,34.18862,28.68164
2.28137,-0.10618,0.32493,-9.79455,-0.02337,0.00776,0.03459,-10.96705,-34.93496,35.80288,28.67969
2.30542,-0.11065,0.34742,-9.79775,-0.03802,0.10047,0.09559,-9.48463,-35.27725,34.58413,28.68359
2.32702,-0.11174,0.32708,-9.78837,-0.03802,0.05412,0.03459,-10.22779,-35.28471,35.41518,28.65625
2.34547,-0.10141,0.33342,-9.78017,-0.00689,0.05412,-0.02523,-10.59302,-34.92680,35.00454,28.69531
2.36186,-0.10828,0.34976,-9.79026,-0.00811,0.02422,0.00344,-9.86353,-33.87992,34.57705,28.67383
2.38565,-0.11658,0.33660,-9.77418,-0.03800,0.05412,0.09555,-10.23292,-34.58695,35.39834,28.68359
2.40146,-0.09560,0.32649,-9.79731,0.02300,-0.00689,0.03454,-10.96387,-34.93021,35.41139,28.67773
2.43019,-0.09089,0.34379,-9.78556,-0.15998,0.11512,-0.02649,-11.33472,-34.93332,35.81837,28.66797
2.44984,-0.10135,0.32282,-9.78840,-0.03797,-0.00689,0.00463,-10.58619,-35.26999,34.60646,28.72852
2.46577,-0.10160,0.32224,-9.78721,-0.03797,-0.00689,-0.02648,-9.47877,-35.62107,34.19191,28.64062
2.49010,-0.10578,0.32883,-9.78603,0.02303,-0.06789,-0.02648,-11.32838,-35.27585,35.41457,28.64648
2.50546,-0.10578,0.33544,-9.78724,0.08407,0.05412,-0.08748,-10.24537,-34.60349,36.59621,28.66211
2.53176,-0.11897,0.34440,-9.77837,-0.03794,-0.00689,-0.02645,-11.33814,-34.58333,35.80128,28.67773
2.54532,-0.11054,0.33726,-9.79317,0.02307,0.05412,-0.02645,-10.59156,-35.27523,35.00392,28.67773
2.56950,-0.10756,0.34748,-9.80389,-0.03794,-0.00689,-0.02645,-9.86011,-34.57747,34.58766,28.69531
2.58564,-0.10818,0.32522,-9.78306,-0.03794,0.05412,0.03456,-10.96461,-35.63411,35.83083,28.65039
2.60947,-0.10873,0.33311,-9.80264,-0.03794,-0.00689,0.03456,-9.86890,-34.94417,35.80278,28.65430
2.62564,-0.11350,0.34928,-9.80507,0.02310,0.05412,0.03456,-10.96558,-34.57601,35.01323,28.71680
2.64969,-0.12183,0.33437,-9.80541,-0.03791,-0.00689,0.03456,-10.60963,-34.59568,36.20757,28.70312
2.66579,-0.09991,0.32281,-9.77484,0.02299,0.05411,-0.02645,-10.59723,-33.87432,34.58328,28.64453
2.68947,-0.10697,0.34080,-9.78671,-0.03802,-0.00689,-0.08748,-10.59462,-34.57745,34.98636,28.65625
2.70581,-0.11415,0.33372,-9.79073,0.02299,-0.00689,0.09550,-10.95839,-34.56958,34.59793,28.64453
2.73001,-0.09924,0.33181,-9.79021,0.02299,-0.00689,-0.02651,-10.21864,-35.27270,34.59593,28.69727
2.75383,-0.13443,0.34687,-9.79312,0.02299,0.11512,0.03450,-10.58949,-35.27581,35.00291,28.65820
2.76949,-0.11183,0.34556,-9.77303,-0.09902,0.05411,-0.02651,-9.87074,-33.89202,35.37645,28.65234
2.78547,-0.10463,0.34683,-9.77968,0.02299,-0.00689,0.03450,-9.85958,-35.28753,35.39857,28.68164
2.80950,-0.10105,0.34624,-9.79203,-0.09902,0.11512,0.03450,-9.50753,-34.95916,36.59877,28.61523
2.82556,-0.11539,0.34493,-9.76897,0.02299,0.05411,-0.08751,-9.86275,-34.93909,35.39857,28.61133
2.84945,-0.11940,0.33684,-9.80709,-0.03799,0.05411,0.03450,-10.23116,-34.23255,34.98793,28.64453
2.86542,-0.10280,0.32770,-9.79906,-0.03799,0.05411,-0.02648,-10.23116,-34.23255,34.98793,28.65234
2.88953,-0.12237,0.32349,-9.78881,0.02302,0.05411,0.03453,-10.95723,-34.56922,34.58656,28.68359
2.90538,-0.10359,0.35201,-9.77024,-0.03799,0.05411,0.03453,-10.61617,-34.96253,37.41664,28.69336
2.92968,-0.11651,0.32610,-9.77874,0.02302,-0.00686,-0.02645,-10.58812,-34.92124,34.59438,28.66992
2.94553,-0.11086,0.33743,-9.78940,-0.09899,-0.00686,0.03431,-9.49535,-34.94100,35.38393,28.68555
2.96958,-0.09922,0.32219,-9.78484,0.02302,-0.00676,0.03451,-10.59887,-34.58382,35.38967,28.65039
2.99342,-0.12171,0.34925,-9.77825,-0.03811,0.11507,-0.02640,-10.59887,-34.58382,35.38967,28.63672
3.00939,-0.09367,0.33413,-9.79349,0.02302,-0.00688,-0.02650,-10.96703,-34.93587,35.80202,28.62891
3.03366,-0.10280,0.32726,-9.78177,-0.03799,0.05412,-0.02650,-10.24340,-34.24984,36.19240,28.66797
3.04955,-0.10327,0.33669,-9.77998,0.02283,0.05402,0.03441,-10.59252,-34.92709,34.99807,28.68555
3.07342,-0.11473,0.34195,-9.80961,0.02308,-0.12884,-0.02647,-10.95751,-34.56918,34.58742,28.68750
3.08949,-0.11539,0.32885,-9.77766,-0.03795,0.05402,0.03451,-10.94618,-35.61019,34.21193,28.69727
3.11355,-0.10166,0.32956,-9.76317,0.02281,-0.00674,-0.02650,-9.86317,-35.29208,35.79103,28.65430
3.12933,-0.09088,0.32970,-9.76178,-0.15920,0.05323,0.03283,-10.59315,-34.22274,34.57228,28.72656
3.15348,-0.09451,0.32978,-9.76626,-0.09902,0.05407,0.03462,-10.95326,-34.56283,34.17849,28.67773
3.16941,-0.12211,0.32346,-9.78327,0.08274,-0.00693,0.03493,-11.31752,-35.96810,35.01638,28.65820
3.19344,-0.12786,0.35175,-9.74949,-0.03762,-0.00652,-0.02693,-10.95179,-35.26693,34.59279,28.67773
3.20940,-0.12240,0.32070,-9.77694,-0.03888,0.05324,0.03536,-9.86879,-34.24056,35.37697,28.62305
3.23347,-0.11185,0.36168,-9.79882,0.02643,0.05236,-0.02479,-9.50721,-34.60409,36.18508,28.67969
3.24933,-0.11194,0.33995,-9.76205,-0.03631,0.05236,0.09209,-10.23622,-34.23812,35.38625,28.62695
3.27347,-0.10820,0.33026,-9.80122,-0.03977,-0.06450,0.03459,-10.23618,-34.59246,35.79511,28.66797
3.28968,-0.11644,0.34918,-9.77802,-0.09906,0.05409,-0.02816,-9.85581,-35.28143,34.99580,28.64648
3.31367,-0.11268,0.34869,-9.78409,0.02294,0.05409,0.03630,-10.59165,-34.92645,34.99218,28.65625
3.32947,-0.11961,0.33313,-9.80089,-0.03806,0.16908,-0.02645,-10.95982,-35.27850,35.40453,28.64844
3.35381,-0.10512,0.34905,-9.78986,0.08395,0.00025,-0.02645,-9.86216,-34.93792,35.38773,28.65430
3.36936,-0.10473,0.35440,-9.77659,0.08050,-0.00520,-0.02645,-10.22153,-34.92374,34.59086,28.64062
3.39363,-0.12893,0.35103,-9.78916,-0.09211,0.05059,-0.02997,-9.86411,-35.64689,36.19926,28.72656
3.40941,-0.10406,0.33258,-9.77074,-0.08449,0.05410,0.01993,-10.96274,-34.92960,35.39896,28.66602
3.88153,-0.10573,0.34274,-9.81039,-0.03805,0.05412,-0.08748,-10.58834,-34.92099,34.59434,28.61914
3.89792,-0.11654,0.33666,-9.78783,0.02299,0.05412,0.03453,-10.22896,-34.93517,35.39121,28.63086
3.92150,-0.11654,0.33612,-9.80086,-0.09902,-0.06789,0.03453,-10.95894,-34.92411,35.00108,28.62109
3.93754,-0.12801,0.35814,-9.76894,-0.09902,0.11509,0.03453,-10.23873,-34.24344,35.78916,28.70312
3.96151,-0.09690,0.33723,-9.78436,-0.03801,0.05409,0.03453,-10.23994,-34.59818,36.19785,28.65430
3.97754,-0.11297,0.34563,-9.78907,-0.09902,0.11509,-0.02648,-11.31514,-35.25834,34.20371,28.66406
4.00153,-0.11482,0.34913,-9.76598,-0.03801,0.05409,0.09553,-9.49873,-34.59232,35.38340,28.64258
4.01752,-0.12073,0.35886,-9.80035,-0.03801,0.17610,0.03453,-9.86275,-34.93851,35.39269,28.66211
4.04145,-0.10459,0.34812,-9.80747,-0.03801,0.05409,0.03453,-10.59175,-34.92662,34.99133,28.67578
4.05759,-0.11660,0.36063,-9.79026,-0.03801,-0.00692,0.03453,-10.59053,-34.57188,34.58263,28.68945
4.08156,-0.10464,0.35169,-9.79445,-0.03801,0.05409,-0.02651,-10.96187,-34.57539,34.99523,28.66406
4.09729,-0.12127,0.33074,-9.77234,-0.03801,-0.00692,-0.02651,-10.23287,-34.94136,35.79406,28.68750
4.12139,-0.11721,0.37612,-9.78917,-0.03801,-0.00692,0.03450,-10.58614,-35.62447,35.00256,28.64648
4.13733,-0.09507,0.35050,-9.80510,0.02299,0.05412,-0.02651,-10.60425,-34.94478,36.20666,28.65039
4.16163,-0.11476,0.35213,-9.78377,-0.03801,0.05412,-0.02651,-10.59502,-34.57808,34.99181,28.65039
4.17755,-0.11476,0.35226,-9.80319,-0.03801,0.05412,-0.08751,-10.95806,-34.92329,34.98990,28.70312
4.20139,-0.13686,0.34807,-9.77713,-0.09905,-0.00692,0.03450,-11.68657,-35.61568,35.01409,28.68555
4.21741,-0.11484,0.36354,-9.79672,-0.03805,0.11509,-0.02651,-10.58794,-34.92036,34.58855,28.63281
4.24219,-0.11052,0.35809,-9.78682,-0.09905,-0.00692,0.09550,-10.98149,-33.54536,36.17742,28.67383
4.25743,-0.11551,0.33725,-9.76144,0.02278,0.05400,-0.02651,-10.96617,-34.58052,35.39910,28.65430
4.48148,-0.11702,0.33911,-9.79416,-0.03803,-0.00691,0.03459,-11.70215,-33.87185,34.99797,28.65234
4.50568,-0.09224,0.35388,-9.77438,0.02297,0.05410,-0.02642,-10.21875,-35.27224,34.59075,28.63477
4.52149,-0.11931,0.33742,-9.79097,0.08395,0.05410,-0.08745,-10.59570,-34.57791,34.99212,28.62695
4.54545,-0.12529,0.33587,-9.81416,0.02291,0.05410,-0.02645,-10.58821,-34.56652,34.19133,28.66406
4.56138,-0.10963,0.35702,-9.77391,-0.03806,0.05410,-0.02645,-10.96663,-34.58102,35.39934,28.65820
4.58545,-0.10109,0.35301,-9.78593,-0.03787,0.05400,-0.08727,-10.60042,-34.93820,35.79876,28.65430
4.60130,-0.11468,0.35695,-9.80440,0.02265,0.05400,0.03437,-10.23005,-34.93550,35.39739,28.63086
4.62590,-0.12005,0.36387,-9.79321,-0.03796,0.05420,-0.02636,-11.33064,-34.92714,35.40866,28.62891
4.64148,-0.12321,0.35044,-9.78022,-0.09887,0.11493,0.03456,-11.68831,-34.55775,34.19773,28.67383
4.66568,-0.11571,0.34758,-9.78615,-0.09907,0.05411,-0.02645,-10.96321,-33.87074,34.57126,28.65234
4.68143,-0.10258,0.35989,-9.78009,-0.09738,-0.00693,-0.02476,-10.22737,-34.22572,34.57482,28.65039
4.70557,-0.09637,0.32018,-9.80519,0.02255,-0.00693,0.03435,-10.59944,-34.58363,35.39025,28.66602
4.72952,-0.11741,0.36507,-9.81339,-0.03815,-0.00693,-0.08741,-10.94246,-35.60414,33.80334,28.67578
4.75384,-0.11117,0.34765,-9.79660,0.02316,0.17593,0.03454,-10.59041,-35.27577,35.00353,28.65430
4.76980,-0.10501,0.34090,-9.78869,0.08355,0.05411,0.03454,-10.95393,-35.62147,35.00722,28.66992
4.78565,-0.12129,0.33739,-9.80154,0.02295,-0.00693,-0.02647,-10.23127,-34.93641,35.40883,28.66016
4.80983,-0.09389,0.34337,-9.78852,-0.09906,0.05408,0.03283,-10.21615,-35.62098,34.59633,28.65234
4.82568,-0.10791,0.35303,-9.81600,0.02124,0.05408,0.09386,-10.95687,-34.21376,34.17861,28.68555
4.84982,-0.10110,0.36376,-9.80564,-0.09558,0.05056,-0.14503,-9.87191,-34.24492,35.76845,28.68750
4.86550,-0.11017,0.34555,-9.78566,-0.09565,0.05408,0.03100,-10.23372,-34.94023,35.78896,28.65039
4.88941,-0.11801,0.34287,-9.80474,0.02294,0.05408,-0.02485,-9.48519,-35.27690,34.57802,28.66016
4.90577,-0.10302,0.34236,-9.77996,-0.03465,0.05235,-0.02485,-9.49348,-34.93510,34.99233,28.65820
4.92946,-0.11174,0.33530,-9.79712,-0.04528,0.05408,0.03444,-11.32844,-35.62895,35.80581,28.63086
4.94586,-0.11693,0.32856,-9.77324,-0.03810,-0.00693,0.03093,-11.31749,-35.61210,34.60756,28.71875
4.96949,-0.11990,0.34318,-9.77659,0.02416,0.02296,0.03444,-9.50792,-34.60331,36.19057,28.65625
4.98969,-0.09781,0.33064,-9.78472,-0.03090,-0.06078,0.04162,-10.58898,-34.91972,34.58901,28.64648
5.00954,-0.11085,0.34770,-9.79381,-0.09559,-0.00694,-0.02307,-10.97057,-34.58574,35.79702,28.66797
5.02551,-0.10748,0.33367,-9.78947,0.00829,0.00770,-0.02659,-10.22643,-35.98710,35.81734,28.61133
5.04947,-0.09959,0.35126,-9.80295,-0.05272,0.00770,0.01977,-10.22753,-34.57792,34.96627,28.67773
5.06535,-0.11176,0.34693,-9.78953,-0.03456,-0.06444,-0.01957,-10.60277,-34.58732,35.78170,28.63086
5.09099,-0.10341,0.34554,-9.77506,-0.03805,0.02421,0.00468,-10.22034,-34.92297,34.57948,28.70898
5.10553,-0.11238,0.33843,-9.78308,0.02296,-0.00690,0.03457,-10.23393,-34.23693,35.37489,28.67773
5.12954,-0.10404,0.34979,-9.78198,-0.03805,-0.00690,-0.02643,-9.86601,-34.94397,35.79115,28.67188
5.14596,-0.12311,0.35347,-9.79261,-0.03805,0.05410,0.03457,-10.59599,-33.87365,34.57240,28.66797
5.16954,-0.12069,0.33549,-9.79430,0.08396,-0.00690,-0.02643,-10.95805,-34.92248,34.99037,28.67969
5.19348,-0.10111,0.34010,-9.75945,-0.09902,-0.00690,0.03457,-9.12407,-34.93684,34.97718,28.63281
5.20938,-0.10757,0.34566,-9.79501,0.08396,-0.00690,-0.02643,-10.22075,-34.92257,34.58533,28.62109
5.22559,-0.12194,0.34804,-9.78609,-0.03805,-0.00690,0.09558,-10.95366,-35.97531,35.41004,28.69531
5.24940,-0.10819,0.34683,-9.79206,0.08396,0.05410,-0.02643,-9.86772,-34.94503,35.80823,28.68164
5.27349,-0.11170,0.33255,-9.80739,0.08396,-0.00690,0.03457,-10.59282,-34.92724,35.00354,28.61914
5.28977,-0.12498,0.34494,-9.76357,-0.09902,-0.00690,-0.02643,-10.23051,-34.23144,34.97753,28.68359
5.31351,-0.10525,0.35577,-9.78026,0.08396,-0.00690,-0.02643,-11.33989,-34.58960,36.20409,28.66992
5.32970,-0.09867,0.34381,-9.78320,-0.03805,-0.00690,-0.02643,-9.85454,-35.28051,34.98534,28.63086
5.35355,-0.11826,0.35595,-9.81519,0.02296,-0.00690,0.03457,-9.86412,-34.58862,35.37743,28.65625
5.36946,-0.10042,0.35940,-9.79451,-0.03805,0.05410,0.03457,-10.22545,-35.28344,35.39225,28.64453
5.39437,-0.11000,0.33192,-9.78198,-0.09908,-0.00690,0.03457,-10.59117,-34.92578,34.98747,28.67188
5.40950,-0.10343,0.34917,-9.78905,-0.03808,0.05413,-0.02643,-10.22423,-34.92857,34.98371,28.64844
5.43343,-0.09568,0.33179,-9.77016,-0.03808,0.05413,-0.02643,-9.86143,-34.93725,35.38312,28.65234
5.44953,-0.13138,0.34273,-9.80910,0.02296,0.05413,0.09558,-10.59532,-34.93167,35.39064,28.67578
5.47339,-0.11593,0.35824,-9.79743,0.02296,0.05413,0.03457,-11.33067,-35.63528,36.20949,28.63672
5.48981,-0.11001,0.32885,-9.77599,-0.09905,0.11514,-0.02646,-10.58702,-34.91995,34.58449,28.68359
5.51345,-0.10457,0.34338,-9.80974,0.02296,0.05413,-0.02646,-10.22423,-34.92864,34.98390,28.65234
5.52962,-0.11458,0.33144,-9.79373,-0.03805,0.05413,-0.02646,-10.60191,-34.58880,35.78859,28.66406
5.55347,-0.11773,0.35274,-9.77967,-0.03805,0.05413,0.03454,-9.86607,-34.94378,35.79232,28.68359
5.56940,-0.09874,0.34269,-9.78787,0.02296,0.11514,-0.02646,-10.96666,-34.93541,35.80359,28.65430
5.59403,-0.10759,0.32575,-9.77550,-0.03805,0.05416,0.03454,-9.85240,-35.98326,35.39441,28.63672
5.60956,-0.11409,0.33068,-9.79381,-0.03805,0.05416,0.03454,-9.86356,-34.58775,35.37229,28.62695
5.63354,-0.10406,0.35155,-9.76489,0.08396,0.05416,-0.02646,-10.58817,-34.92052,34.59592,28.64258
5.64964,-0.11697,0.34539,-9.79561,-0.03805,0.05416,0.03454,-9.87089,-34.24522,35.77561,28.69141
5.67354,-0.09758,0.34768,-9.78993,-0.03805,0.05416,0.09551,-9.85223,-35.62901,34.99729,28.65234
5.68951,-0.12380,0.33538,-9.79449,0.02289,0.11505,0.03459,-10.21843,-34.21355,33.76736,28.61523
5.71346,-0.12046,0.35561,-9.78393,-0.03793,0.05408,-0.02639,-10.58903,-35.27508,34.99685,28.69141
5.72934,-0.10589,0.31786,-9.79286,0.02280,0.11515,-0.02654,-10.22160,-35.27745,34.98750,28.67773
5.76989,-0.11541,0.34196,-9.77245,-0.09903,0.05414,-0.02643,-10.59807,-34.58263,35.38325,28.68555
5.77796,-0.11474,0.33846,-9.76769,0.02298,-0.00686,0.09558,-10.22844,-34.93419,35.38502,28.64648
5.79343,-0.10782,0.34203,-9.78255,0.02298,0.05414,0.03454,-11.33977,-34.23497,35.79982,28.62500
5.81756,-0.10383,0.34165,-9.80743,-0.03799,0.05414,0.03454,-10.96013,-35.27794,35.40382,28.63086
5.83344,-0.10054,0.34792,-9.76898,-0.09903,-0.06793,0.09555,-10.95490,-34.91735,34.59181,28.62695
5.85738,-0.10996,0.35395,-9.79851,0.02298,0.05408,-0.02646,-10.22785,-34.57994,34.98195,28.67578
5.87347,-0.11292,0.34506,-9.78305,0.02298,0.05408,-0.02646,-10.95344,-34.56258,34.18312,28.62891
5.89766,-0.11350,0.32429,-9.79830,-0.09903,0.05408,0.09555,-10.95708,-34.92196,34.97804,28.62500
6.29785,-0.11275,0.34034,-9.80011,-0.04508,0.05412,0.09210,-10.58224,-35.61862,34.59985,28.63672
6.32191,-0.10243,0.32763,-9.79674,-0.09190,-0.00692,-0.01922,-10.60436,-34.94479,36.20727,28.64648
6.33749,-0.09890,0.33750,-9.79091,0.02297,0.05409,0.02026,-10.58939,-34.21725,34.17407,28.66016
6.36155,-0.11364,0.33248,-9.78553,-0.09904,0.05409,0.08844,-10.58433,-34.91549,34.19062,28.62109
6.37754,-0.10188,0.34067,-9.78731,0.01583,-0.00692,-0.02643,-9.50328,-34.59909,35.79219,28.67188
6.40178,-0.11271,0.32503,-9.78593,-0.09733,-0.00519,0.03458,-11.69078,-34.56384,34.59394,28.65039
6.42146,-0.10870,0.35419,-9.78134,0.02297,-0.02157,0.06629,-10.96470,-34.58081,35.38691,28.65625
6.44191,-0.10439,0.33389,-9.80076,-0.06913,0.08402,0.00348,-10.60289,-33.88549,35.36645,28.62109
6.45751,-0.11819,0.34261,-9.78140,-0.00813,0.08402,-0.02643,-10.96470,-34.58081,35.38691,28.64844
6.48187,-0.11728,0.34722,-9.79388,0.02300,0.02482,0.06629,-10.58482,-35.26977,34.59346,28.62109
6.49759,-0.11959,0.32961,-9.76722,-0.03800,0.05290,0.00348,-10.95274,-34.56274,34.17744,28.70117
6.52601,-0.11180,0.33354,-9.78175,0.05471,0.05412,-0.01177,-9.85020,-34.92041,34.17719,28.63477
6.53755,-0.11978,0.32175,-9.78994,0.02300,0.02300,0.03581,-10.96348,-34.22558,34.97797,28.65039
6.56149,-0.10978,0.33177,-9.78240,-0.06794,0.05535,0.06448,-10.22569,-35.28320,35.39008,28.66406
6.57744,-0.12128,0.34271,-9.79791,-0.16004,-0.00687,0.03459,-10.97178,-34.23730,35.78412,28.67383
6.60152,-0.12066,0.31515,-9.79245,0.02294,0.11514,0.03459,-10.58555,-35.26953,34.59858,28.61133
6.61803,-0.11353,0.32590,-9.79252,0.02294,0.05413,0.03459,-10.22154,-34.21875,34.15839,28.67188
6.64168,-0.10580,0.34987,-9.79085,-0.03806,-0.06794,0.09559,-10.60728,-34.59546,36.19941,28.62891
6.65757,-0.10643,0.36182,-9.78682,-0.03806,-0.00690,0.03455,-10.59022,-34.57107,34.57538,28.62695
6.68185,-0.10558,0.33214,-9.78712,0.02294,0.08398,-0.02645,-10.22792,-34.58016,34.98041,28.65234
6.70557,-0.11836,0.35823,-9.79088,0.02294,0.05409,-0.02645,-10.59217,-35.28035,35.38715,28.62305
6.72174,-0.10460,0.34868,-9.79796,0.02294,-0.06792,-0.02645,-10.22303,-34.57381,34.56635,28.65625
6.74582,-0.12006,0.34572,-9.80145,-0.03806,0.05409,-0.02645,-10.22876,-34.93489,35.38373,28.66602
6.77819,-0.11657,0.34383,-9.78133,-0.09910,0.05409,0.03455,-10.60230,-34.58919,35.78510,28.62500
6.78588,-0.10221,0.35102,-9.79151,-0.09910,-0.06792,-0.08745,-10.96680,-34.93563,35.80010,28.67383
6.80154,-0.12670,0.35940,-9.78076,-0.03809,-0.00692,-0.02645,-10.58472,-35.26912,34.58721,28.62695
6.82610,-0.10336,0.34275,-9.80569,-0.09910,0.05412,0.03459,-10.21778,-34.91805,34.18584,28.72070
6.84141,-0.11353,0.34085,-9.78669,0.02291,0.05412,-0.02642,-10.60010,-34.93843,35.79717,28.64844
6.86548,-0.11771,0.36058,-9.77680,0.02291,-0.00689,-0.02642,-10.96167,-34.57491,34.98906,28.65234
6.88136,-0.11547,0.35828,-9.79794,0.02291,0.05412,0.09559,-10.21802,-35.27217,34.58379,28.66211
6.90570,-0.10642,0.35823,-9.78844,0.02298,-0.00692,0.09563,-10.22365,-34.57436,34.57949,28.62109
6.92228,-0.11949,0.35345,-9.79087,-0.03806,0.11509,0.03460,-10.58473,-34.21059,33.76601,28.66016
6.94549,-0.11117,0.33838,-9.76549,0.02295,-0.06789,-0.02644,-9.49684,-35.29556,35.79140,28.62891
6.96164,-0.11353,0.36430,-9.80510,0.02295,-0.00689,-0.08744,-11.31520,-35.25845,34.20254,28.63086
6.98556,-0.11060,0.35424,-9.79985,-0.03806,0.05412,-0.02644,-9.85524,-34.22231,34.16543,28.60938
7.00142,-0.10807,0.34875,-9.79660,-0.09906,0.05412,0.03457,-10.58718,-34.92056,34.58730,28.60547
7.02575,-0.12438,0.35601,-9.79372,0.02289,0.05412,0.03457,-10.95412,-34.91777,34.59106,28.60938
7.04148,-0.10761,0.35523,-9.78791,0.02296,0.05412,-0.02644,-10.58351,-35.26860,34.58176,28.61914
7.06535,-0.09631,0.34862,-9.79541,-0.03804,0.11515,0.03460,-10.22731,-34.58012,34.98117,28.64648
7.08147,-0.11481,0.36067,-9.78038,0.08384,0.05415,0.03453,-9.48708,-34.92875,34.57590,28.61328
7.10558,-0.10171,0.35735,-9.80506,0.02296,0.05415,0.03453,-10.60622,-34.59477,36.18820,28.66211
7.12152,-0.10587,0.35171,-9.79621,-0.03804,0.11518,-0.02648,-10.23244,-33.88188,34.95871,28.65234
7.14551,-0.11397,0.33848,-9.80114,-0.22091,0.05409,-0.02628,-9.85768,-34.93168,34.97714,28.67188
7.16140,-0.10728,0.35450,-9.79723,-0.09908,0.05439,-0.02668,-10.96706,-34.93552,35.80038,28.62109
7.18571,-0.11094,0.35861,-9.79846,-0.03804,0.05419,-0.02648,-10.95784,-34.56882,34.58554,28.64648
7.20953,-0.10917,0.34696,-9.79324,-0.09905,-0.00642,0.03456,-10.60310,-34.94333,36.18808,28.63672
7.22571,-0.11670,0.34063,-9.80390,0.02217,0.05419,0.03371,-9.49958,-33.88766,34.95078,28.63672
7.24984,-0.11100,0.36957,-9.81542,0.02301,-0.00679,0.03456,-10.23054,-34.93552,35.39487,28.63672
7.26580,-0.12020,0.34954,-9.79066,0.02260,0.11437,-0.02645,-10.23422,-35.29489,36.18979,28.64062
7.28982,-0.11062,0.35813,-9.78405,-0.09776,0.11478,0.03456,-10.96811,-34.93576,35.80576,28.67578
7.30564,-0.10689,0.35400,-9.77953,-0.03883,-0.00601,0.03456,-10.60068,-34.93814,35.79629,28.65234
7.32977,-0.10781,0.35699,-9.79750,-0.03799,-0.00685,-0.08574,-10.23740,-34.94641,36.18984,28.66602
7.35103,-0.10162,0.37266,-9.80426,0.02305,-0.00513,0.03285,-9.85263,-34.21643,33.76211,28.65625
7.36986,-0.11729,0.35909,-9.78487,-0.03796,0.05417,0.03457,-10.96982,-34.23205,35.39199,28.62500
7.38553,-0.11712,0.36625,-9.80391,-0.09899,0.00033,0.02739,-9.85556,-34.92590,34.57998,28.68359
7.40946,-0.11527,0.35805,-9.79141,-0.03714,0.05334,0.03457,-10.24008,-34.24279,35.78213,28.60547
7.42546,-0.09955,0.36234,-9.79275,-0.03798,0.05419,0.03105,-9.85727,-35.28088,34.99404,28.67969
7.44965,-0.11290,0.36662,-9.79421,0.01585,0.00035,0.08122,-11.70297,-34.22522,35.38808,28.66992
7.46556,-0.12218,0.34754,-9.78302,0.01585,0.10802,0.09558,-11.32944,-35.62951,35.81533,28.66211
7.48967,-0.10622,0.34901,-9.79912,0.02303,-0.00685,-0.01929,-10.59995,-34.58264,35.38808,28.65820
7.50599,-0.12070,0.34896,-9.80066,0.01581,0.04694,-0.01927,-10.58989,-34.92222,34.61098,28.66406
7.52961,-0.10892,0.34836,-9.77620,-0.03802,0.05412,0.03112,-9.50688,-34.60411,36.19008,28.65234
7.54568,-0.11172,0.37352,-9.78822,-0.02338,0.05412,-0.01179,-9.86406,-35.29307,35.80165,28.68359
7.56959,-0.12317,0.34154,-9.79575,0.02298,0.05412,0.03579,-10.58818,-34.92051,34.58876,28.69141
7.58547,-0.11320,0.35496,-9.78165,-0.03802,0.08401,0.00347,-9.12334,-35.64122,35.39101,28.65430
7.60963,-0.10070,0.34892,-9.80742,0.06934,-0.00687,0.04924,-10.23564,-34.59239,35.78896,28.70117
7.62553,-0.12594,0.35716,-9.78502,-0.02338,0.10049,-0.02644,-10.22675,-35.63829,35.79985,28.65234
7.65228,-0.10863,0.35972,-9.78435,-0.06973,0.03948,-0.01179,-10.96259,-34.57579,35.00151,28.67188
7.66584,-0.12298,0.36970,-9.81075,-0.10025,0.11395,0.00467,-9.87080,-34.95005,36.19389,28.62695
7.68947,-0.11515,0.33996,-9.80083,-0.03677,0.02306,0.06568,-10.24043,-34.59849,36.19212,28.65039
7.70563,-0.11596,0.35649,-9.79562,0.02304,-0.00684,-0.02642,-9.50019,-34.94712,35.78684,28.69336
7.72934,-0.09684,0.36126,-9.79570,-0.09903,-0.00684,-0.02642,-9.86396,-34.93926,35.39866,28.70508
7.74592,-0.11052,0.33434,-9.80382,0.02304,-0.00684,0.03461,-10.22578,-34.92975,34.98801,28.66992
7.77779,-0.11350,0.34936,-9.80863,-0.03796,-0.00684,-0.02642,-10.59467,-34.22370,34.58298,28.62695
7.78597,-0.10404,0.36361,-9.78504,0.02304,0.05416,-0.08743,-10.96088,-34.22051,34.58119,28.66211
7.80955,-0.11704,0.35094,-9.76566,-0.06906,-0.00684,0.03458,-10.61005,-34.24688,36.19057,28.69336
7.83371,-0.10935,0.37088,-9.80573,-0.03795,0.05416,0.03458,-9.85419,-34.92608,34.57631,28.65234
7.84964,-0.12310,0.35834,-9.79856,0.02309,-0.06785,0.03458,-10.58418,-34.91501,34.18617,28.64453
7.87367,-0.10158,0.34456,-9.80804,-0.03792,0.05416,0.03458,-11.32587,-34.92122,35.00014,28.64062
7.88948,-0.10759,0.33669,-9.79139,-0.03792,0.05416,-0.02642,-10.98042,-32.83724,35.37196,28.66797
7.91354,-0.12618,0.35816,-9.76600,0.02309,-0.06791,0.03458,-10.22358,-35.63411,35.39738,28.64062
7.92958,-0.10691,0.35177,-9.80806,-0.09892,-0.00690,-0.02642,-10.96577,-34.58236,35.38831,28.70117
7.95436,-0.12190,0.35460,-9.78726,0.02309,0.05410,0.03458,-10.60761,-33.18489,34.97620,28.66797
7.96958,-0.09689,0.35529,-9.80038,0.02309,-0.00690,-0.02645,-11.33466,-34.93489,35.81213,28.65234
7.99362,-0.09504,0.35102,-9.79204,-0.03792,0.11511,0.03458,-9.85712,-34.22445,34.17346,28.64648
8.00955,-0.11475,0.37438,-9.78631,-0.03792,-0.00690,0.03458,-11.31709,-35.26058,34.21057,28.65820
8.03349,-0.11475,0.35456,-9.79503,-0.03792,0.05413,-0.02642,-10.23115,-34.93734,35.39807,28.69922
8.04963,-0.11715,0.33564,-9.78079,-0.03792,-0.00690,-0.02642,-10.96699,-34.58236,35.39440,28.69336
8.07436,-0.10880,0.35636,-9.79083,-0.03792,0.05410,-0.02642,-11.33271,-35.28353,35.81823,28.67383
8.09002,-0.09978,0.36014,-9.80929,0.02309,-0.00690,0.03458,-10.95893,-34.57064,34.58874,28.65039
8.11405,-0.10097,0.36247,-9.80935,-0.03803,-0.00691,-0.02644,-9.84711,-35.26929,34.18350,28.67773
8.12953,-0.10468,0.33203,-9.78209,-0.09904,0.05410,0.03454,-9.85040,-34.92090,34.18350,28.67969
8.15399,-0.11874,0.34947,-9.77264,0.02291,0.05410,-0.02641,-10.59942,-34.58447,35.40030,28.63477
8.16977,-0.11228,0.33789,-9.81503,0.02291,0.05410,0.03457,-10.59822,-33.52490,34.56045,28.67969
8.19385,-0.11348,0.33467,-9.76757,0.02291,-0.00688,-0.02641,-10.94881,-35.61475,34.60293,28.63867
8.20961,-0.10833,0.33590,-9.78654,0.02291,-0.00672,0.03435,-10.22273,-35.27808,35.00430,28.69922
8.23404,-0.11320,0.32637,-9.80453,0.02291,-0.00692,-0.08711,-10.95320,-35.62109,35.01175,28.70312
8.24986,-0.11117,0.34689,-9.80185,0.02291,0.05408,-0.02653,-10.22908,-34.93457,35.39652,28.67773
8.27363,-0.09923,0.34216,-9.79035,0.08376,-0.00692,-0.02641,-10.58797,-34.91998,34.59378,28.70117
8.28942,-0.12284,0.32426,-9.78049,0.02273,-0.00672,-0.02650,-10.59146,-34.92547,34.99149,28.62891
8.31360,-0.11218,0.33538,-9.81015,-0.03809,0.05450,0.03410,-10.96743,-35.99383,36.64188,28.66992
8.32955,-0.11085,0.34902,-9.80352,-0.03851,0.05408,0.03410,-10.96674,-34.93426,35.80741,28.71680
8.35379,-0.10015,0.33844,-9.79456,0.02292,-0.00652,0.03493,-11.32831,-34.57074,34.99930,28.67383
8.37782,-0.11098,0.33265,-9.80860,-0.09909,-0.00694,0.03452,-10.21796,-35.27044,34.59037,28.65820
8.39375,-0.10985,0.34138,-9.81096,0.02250,0.05407,-0.02609,-10.60541,-35.29754,36.61576,28.68359
8.41754,-0.11628,0.34513,-9.78146,-0.03811,-0.00694,0.03452,-10.96381,-35.28254,35.80716,28.66211
8.43409,-0.10318,0.34559,-9.78684,-0.03811,0.05407,-0.02566,-10.94988,-34.55549,33.78568,28.70508
8.45766,-0.10059,0.35516,-9.79038,0.02289,0.05234,-0.02651,-11.68132,-35.25325,34.20194,28.67188
8.47354,-0.11200,0.35841,-9.79539,-0.15838,-0.00524,-0.08409,-10.95671,-34.21223,34.18332,28.65039
8.49750,-0.10056,0.35007,-9.78349,-0.09191,0.00739,-0.03371,-10.96873,-34.22992,35.39328,28.66016
8.51369,-0.10902,0.36196,-9.78303,-0.03088,-0.00697,-0.01935,-10.58885,-34.91888,34.59983,28.65039
8.53767,-0.13068,0.34712,-9.81840,0.02295,0.11339,0.09466,-10.21067,-35.25848,33.78977,28.73438
8.55346,-0.10589,0.34920,-9.79970,-0.09906,0.05758,-0.02655,-11.33372,-34.93036,35.80539,28.68555
8.57741,-0.10681,0.35010,-9.78947,-0.09202,0.11156,0.03445,-10.60520,-34.94265,36.21262,28.67383
8.59369,-0.11238,0.35094,-9.80384,0.00142,0.04687,-0.08042,-10.59876,-34.22732,34.99192,28.70117
8.61761,-0.10062,0.35207,-9.78927,-0.03086,0.05404,-0.01941,-10.22352,-34.57180,34.57370,28.71289
8.63360,-0.11904,0.34643,-9.78293,-0.03804,0.06122,0.03442,-9.86366,-35.29055,35.79636,28.61914
8.65760,-0.10196,0.36277,-9.78449,0.01954,0.05232,-0.02317,-10.95643,-34.21243,34.17820,28.67969
8.67393,-0.11400,0.35297,-9.80295,-0.08440,0.06869,0.01974,-10.59803,-34.22741,34.98630,28.69922
8.69759,-0.11459,0.35563,-9.78747,-0.05269,0.00769,-0.01197,-10.59594,-34.93054,35.39499,28.66797
8.71348,-0.11282,0.34979,-9.78156,0.08525,0.08402,0.00346,-10.58327,-35.61946,34.61095,28.71289
8.73748,-0.12183,0.35119,-9.81867,-0.03798,-0.00686,-0.08742,-10.59392,-34.22298,34.58327,28.63867
8.75359,-0.10958,0.33591,-9.77925,0.05412,0.02427,0.00468,-10.95354,-34.56282,34.18386,28.69531
8.78604,-0.11314,0.36127,-9.78924,-0.05269,0.00781,0.03459,-9.49748,-34.23738,34.97536,28.69727
8.79475,-0.11314,0.35799,-9.80227,0.11393,0.05416,0.03459,-10.96232,-34.92928,35.39894,28.66602
8.81763,-0.10933,0.34769,-9.80244,-0.03792,0.02305,-0.05629,-10.96111,-34.57454,34.99025,28.67578
8.83366,-0.11169,0.34877,-9.81869,0.02308,0.05416,0.03459,-10.22478,-34.92903,34.98827,28.66406
8.85751,-0.09326,0.36065,-9.80044,0.02308,-0.00684,-0.02642,-10.22635,-34.22542,34.57396,28.65234
8.87481,-0.11896,0.36007,-9.79624,-0.03795,0.05416,-0.02642,-10.95389,-34.91731,34.58700,28.65625
8.89757,-0.09625,0.33425,-9.79143,-0.09896,0.05416,-0.02642,-9.49393,-34.58626,34.98080,28.65430
8.91382,-0.11479,0.36240,-9.78615,-0.03792,0.11517,-0.02642,-9.85843,-34.22786,34.56479,28.66016
8.93750,-0.10615,0.34018,-9.79870,-0.00803,-0.00684,-0.02642,-10.21805,-34.56770,34.16537,28.65234
8.95338,-0.08964,0.34211,-9.80985,0.02308,0.05416,0.03459,-10.21872,-35.62727,34.99936,28.65625
8.97789,-0.12672,0.36124,-9.78614,-0.03795,0.05416,0.03459,-10.59054,-34.92610,34.98645,28.65234
9.00154,-0.08793,0.36183,-9.79457,-0.03795,-0.00684,-0.02642,-10.96603,-34.93552,35.80237,28.65820
9.01788,-0.13087,0.37151,-9.80156,0.02308,0.05416,0.03459,-10.96482,-34.58078,35.39368,28.69141
9.04155,-0.10218,0.34867,-9.79622,-0.03792,-0.00684,-0.02642,-10.22556,-35.28439,35.39723,28.67383
9.05756,-0.10460,0.35539,-9.80625,0.02308,-0.06788,-0.02642,-10.24576,-33.90158,36.19313,28.63867
9.07365,-0.10767,0.34021,-9.78207,-0.03792,-0.00687,0.03459,-10.96939,-33.52853,34.97438,28.64258
9.09746,-0.10643,0.35951,-9.80041,-0.03792,-0.00687,0.03459,-10.59195,-34.92697,34.99835,28.62695
9.12165,-0.11369,0.36950,-9.77494,0.02308,0.05416,-0.02642,-10.61687,-33.90451,36.60089,28.64844
9.13751,-0.10822,0.34927,-9.79507,0.02308,-0.00684,0.03459,-9.49675,-35.29611,35.79962,28.67383
9.16149,-0.10335,0.34756,-9.79611,-0.03795,0.11517,0.03459,-11.32195,-34.91550,34.60333,28.69141
9.17800,-0.10813,0.34866,-9.79972,-0.03795,0.05416,0.03459,-9.86492,-34.94312,35.78106,28.65430
9.20157,-0.12363,0.35462,-9.78673,-0.03795,0.05416,-0.02642,-11.32195,-34.91591,34.60919,28.68359
9.21745,-0.10160,0.36366,-9.81225,0.02308,0.05416,0.03459,-10.22331,-34.57460,34.58128,28.69531
9.24151,-0.11654,0.35763,-9.79335,-0.03795,-0.12882,-0.08742,-10.94988,-34.91151,34.18577,28.66016
9.25757,-0.11590,0.35344,-9.79319,0.02308,0.05416,-0.08742,-10.59148,-34.92651,34.99388,28.70703
9.28169,-0.12557,0.35002,-9.80745,0.02298,0.11517,0.03453,-11.70574,-34.23217,35.80052,28.63281
9.29743,-0.12374,0.35736,-9.77318,-0.09884,0.05410,0.03453,-10.59734,-35.28783,35.81155,28.69922
9.32163,-0.10729,0.36375,-9.78537,-0.03805,0.05412,-0.02640,-9.49059,-33.52149,33.75422,28.65430
9.33767,-0.11995,0.35734,-9.78770,0.08378,-0.00649,0.03436,-10.21178,-35.61524,34.19806,28.66211
9.36164,-0.10860,0.32960,-9.79038,-0.09896,-0.00690,0.03446,-10.58947,-35.27539,35.00275,28.64258
9.37748,-0.10591,0.34818,-9.77194,0.02293,0.05411,-0.02645,-10.59052,-34.57129,34.58283,28.65625
9.40181,-0.12070,0.34886,-9.76469,-0.09896,0.05411,-0.02655,-11.32392,-35.62403,35.41339,28.66406
9.41746,-0.12333,0.35866,-9.76758,-0.09906,0.11493,-0.02645,-10.59687,-34.93262,35.40611,28.68359
9.44171,-0.12082,0.33862,-9.77883,-0.03805,0.05371,0.03459,-10.96015,-34.21924,34.58092,28.62109
9.45769,-0.10358,0.36321,-9.79223,-0.09866,0.05371,-0.02642,-10.22382,-34.57373,34.57893,28.67969
9.48230,-0.11547,0.34928,-9.78010,-0.09866,-0.00690,0.03419,-10.22783,-34.57963,34.98201,28.66992
9.50565,-0.12059,0.35478,-9.81121,-0.03814,-0.00690,0.03455,-9.13115,-35.65190,36.19685,28.67969
9.52191,-0.09942,0.34926,-9.80230,-0.03825,0.11493,-0.02642,-10.22099,-34.92192,34.58455,28.65820
9.53756,-0.10419,0.35007,-9.81234,-0.09864,0.05371,-0.02559,-10.23003,-34.93453,35.40242,28.68555
9.56443,-0.11629,0.34140,-9.79307,-0.09737,-0.00604,0.03291,-10.59233,-34.92543,34.99739,28.65039
9.57757,-0.12025,0.35045,-9.77534,-0.15755,0.05329,0.03460,-9.50053,-34.24135,35.37263,28.66406
9.60163,-0.11452,0.34307,-9.79428,-0.03975,0.05241,-0.08741,-10.58549,-35.26772,34.59968,28.67188
9.61752,-0.10557,0.35460,-9.81329,-0.03803,0.04695,-0.02641,-10.22539,-34.92763,34.99372,28.64844
9.64189,-0.10569,0.35625,-9.78746,0.07696,0.05413,0.03463,-9.87285,-34.59877,36.18806,28.67188
9.66560,-0.12354,0.36460,-9.77871,0.02298,0.05497,0.03379,-10.22490,-34.92714,34.98787,28.68164
9.68169,-0.11276,0.35296,-9.81326,-0.03803,-0.00688,0.03463,-11.32549,-34.91877,34.99914,28.65234
9.70578,-0.10461,0.36426,-9.78828,-0.03803,0.05412,-0.02287,-10.22295,-34.57185,34.57360,28.64844
9.72154,-0.11654,0.35025,-9.80023,-0.03085,0.04694,0.03463,-11.33037,-34.22053,34.98254,28.66016
9.74552,-0.10699,0.34262,-9.79495,0.01581,0.11512,-0.01920,-9.86259,-34.93635,35.39294,28.64844
9.76145,-0.10871,0.35386,-9.79482,0.02299,-0.05358,-0.03356,-11.69853,-34.21858,34.99743,28.68359
9.79420,-0.10538,0.37658,-9.77320,-0.15657,0.05237,-0.02638,-10.23662,-34.59040,35.79431,28.68555
9.80198,-0.11283,0.34965,-9.80207,-0.00631,0.02480,0.03465,-10.23261,-34.58451,35.39099,28.65234
9.82564,-0.11172,0.36308,-9.80198,-0.02337,0.00774,0.03465,-10.21992,-35.97904,35.39616,28.65430
9.84157,-0.11040,0.35266,-9.79799,-0.03801,0.08519,-0.05745,-10.22967,-33.87552,34.56803,28.64453
9.86553,-0.12802,0.35139,-9.78250,0.05409,0.05408,0.03465,-9.85613,-35.27982,34.99528,28.67578
9.88153,-0.10439,0.35393,-9.79913,-0.00814,-0.00695,0.03587,-9.48797,-34.92777,34.58268,28.65820
9.90555,-0.10999,0.34804,-9.78611,-0.03804,0.05405,0.03465,-10.59539,-34.57645,34.99162,28.65234
9.92154,-0.10397,0.36851,-9.80993,-0.03805,0.05412,-0.02645,-9.48866,-35.28429,34.99195,28.65234
9.94587,-0.12220,0.35088,-9.79362,-0.03805,0.05412,0.03456,-10.58143,-35.26412,34.19654,28.66406
9.96156,-0.10105,0.35581,-9.78322,0.02296,0.05412,-0.08745,-10.21815,-35.27240,34.59058,28.66211
9.98567,-0.12136,0.35221,-9.77543,0.02296,0.11512,-0.02645,-9.85291,-34.57171,34.17261,28.65039
10.00360,-0.10522,0.34567,-9.78908,-0.03805,0.05412,-0.02645,-10.23573,-34.59251,35.78882,28.64648
10.02569,-0.11832,0.36969,-9.79982,0.08396,0.05412,-0.02645,-10.21585,-35.62181,34.60132,28.66992
10.04148,-0.09152,0.33419,-9.77606,-0.03805,-0.00689,0.03459,-10.59500,-34.57786,34.99170,28.67383
10.06557,-0.10840,0.33757,-9.80525,-0.03805,0.05415,-0.02767,-10.96707,-34.93577,35.80762,28.64844
10.08158,-0.12837,0.35417,-9.81571,-0.03805,-0.00686,-0.02645,-10.96516,-34.22679,34.99561,28.66211
10.10566,-0.10161,0.34569,-9.79442,0.02296,0.05415,0.03459,-10.96463,-34.22639,34.99001,28.63281
10.12181,-0.10402,0.34264,-9.78849,0.02296,0.05415,-0.02642,-10.22049,-34.56941,34.18727,28.65820
10.14570,-0.12135,0.34920,-9.77423,-0.03808,-0.00686,-0.02642,-10.21719,-34.91780,34.18727,28.65625
10.16947,-0.09859,0.33430,-9.79616,-0.09908,0.05415,0.03459,-10.96475,-35.28523,35.81911,28.66211
10.18569,-0.12184,0.34456,-9.80741,-0.03808,0.05415,0.03459,-10.22402,-34.57478,34.58571,28.65430
10.20958,-0.11355,0.34803,-9.78554,-0.09908,0.11515,-0.02642,-10.22194,-35.27791,34.99440,28.67383
10.22565,-0.11947,0.34032,-9.79315,0.02293,-0.00686,-0.02642,-10.95485,-35.97664,35.42751,28.64062
10.24976,-0.09082,0.33971,-9.80453,-0.03808,0.05415,-0.02642,-10.96775,-34.23152,35.38854,28.67969
10.26607,-0.11950,0.34801,-9.79321,0.02293,0.05415,0.03462,-11.68846,-34.91219,34.60631,28.70312
10.29002,-0.09989,0.33439,-9.79967,-0.09908,-0.06786,0.03462,-10.58494,-35.26912,34.59502,28.63867
10.30578,-0.11351,0.35524,-9.80150,0.02293,0.05415,0.03462,-10.96067,-34.22029,34.58773,28.66406
10.32998,-0.10404,0.32301,-9.78956,-0.03808,0.11515,-0.02639,-10.23020,-33.87727,34.58023,28.69531
10.34553,-0.09804,0.34623,-9.78966,0.02293,0.05415,0.09562,-9.85301,-35.63020,35.00186,28.62109
10.36962,-0.11345,0.33912,-9.78736,-0.09908,-0.00689,-0.02639,-10.58494,-34.21028,33.76651,28.65234
10.38548,-0.11301,0.32487,-9.79713,-0.03808,-0.00689,-0.02639,-10.24729,-34.25514,36.59658,28.64258
10.41127,-0.12599,0.34304,-9.78039,0.02296,0.05406,-0.14834,-10.59886,-34.58327,35.39053,28.63672
10.42551,-0.10809,0.32003,-9.79670,-0.03795,-0.00686,-0.02633,-10.22801,-34.58016,34.98355,28.65234
10.44962,-0.11628,0.34295,-9.79869,0.02293,-0.00686,0.03456,-9.47996,-35.97665,34.60611,28.62109
10.46564,-0.11140,0.33337,-9.79176,0.08381,0.05415,0.03465,-10.59617,-33.87508,34.57864,28.68750
10.48967,-0.11328,0.34290,-9.80026,-0.03814,-0.00676,-0.02635,-10.22825,-34.58212,34.99490,28.67188
10.50554,-0.10525,0.33557,-9.79094,-0.03804,-0.00689,-0.02635,-10.59812,-34.58441,35.39065,28.68164
10.52968,-0.10280,0.33689,-9.79728,-0.03805,-0.00692,-0.08744,-11.32506,-34.56639,34.59632,28.67773
10.54565,-0.12407,0.35807,-9.78776,0.08360,-0.00671,0.03457,-10.96519,-35.28514,35.81898,28.65820
10.56969,-0.11254,0.33935,-9.79573,-0.09865,-0.00650,0.03416,-10.94795,-34.90672,33.79749,28.66211
10.58593,-0.11194,0.32492,-9.80544,0.08335,0.05432,-0.02623,-10.22871,-34.58080,34.98890,28.68750
10.60991,-0.10253,0.34140,-9.80140,-0.03811,0.05329,-0.02602,-10.24073,-34.59848,36.19886,28.66211
11.13012,-0.10691,0.34335,-9.81277,-0.03805,0.11515,0.03459,-9.86242,-34.93838,35.39353,28.73828
11.15426,-0.10395,0.33491,-9.80089,-0.09905,0.05415,0.03459,-10.95812,-34.56973,34.59812,28.74805
11.16967,-0.10991,0.36255,-9.81701,0.08393,-0.00689,-0.02645,-10.95080,-34.91225,34.19480,28.64062
11.19405,-0.11756,0.36008,-9.79725,-0.03686,-0.00689,0.00468,-10.60729,-34.59609,36.20652,28.69922
11.20959,-0.11056,0.35110,-9.79977,0.08393,0.05412,0.09556,-9.13757,-34.95669,36.20278,28.66016
11.23632,-0.12845,0.35652,-9.80091,-0.03808,0.05412,0.03456,-10.95495,-34.91875,34.60220,28.66797
11.24988,-0.10338,0.35891,-9.80988,0.02293,-0.00689,0.03456,-9.85827,-34.93302,34.99429,28.67383
11.27371,-0.09984,0.33783,-9.78672,-0.09908,0.05412,-0.02645,-9.84468,-35.61906,34.19888,28.64453
11.29769,-0.10758,0.33186,-9.78843,-0.03805,0.11512,-0.02645,-10.22968,-34.93644,35.40688,28.71875
11.31462,-0.09445,0.32648,-9.79140,0.02296,-0.06786,-0.02645,-10.22395,-34.57536,34.58901,28.66016
11.33821,-0.10216,0.34571,-9.80388,-0.03805,-0.00686,0.03456,-10.59993,-34.93913,35.80776,28.68359
11.35360,-0.11229,0.32773,-9.79789,-0.03805,-0.00686,-0.02645,-10.58633,-35.62516,35.01235,28.66406
11.37761,-0.10991,0.34931,-9.79677,-0.03805,0.11515,-0.02645,-10.22378,-34.57536,34.58877,28.66406
11.39375,-0.10757,0.33315,-9.80961,-0.03805,-0.00686,-0.02645,-9.50747,-33.90104,35.78017,28.67188
11.41764,-0.13015,0.33315,-9.79258,-0.03805,-0.06786,0.03456,-10.59244,-35.28190,35.40469,28.66992
11.43377,-0.11003,0.33833,-9.77897,0.02296,-0.00686,0.03456,-10.23477,-34.59245,35.78750,28.66602
11.45772,-0.11398,0.33743,-9.81666,-0.09905,0.05418,0.09556,-9.85879,-35.28776,35.39736,28.71680
11.47365,-0.11950,0.33726,-9.79492,-0.03805,0.05418,0.03456,-10.23794,-34.24381,35.78774,28.70312
11.49759,-0.10824,0.35389,-9.78621,-0.09905,0.11518,0.03456,-9.85684,-34.57829,34.58559,28.68555
11.51362,-0.09678,0.33380,-9.80739,-0.03805,-0.06780,0.03456,-10.96622,-34.58211,35.40932,28.66602
11.54092,-0.11346,0.32308,-9.78721,-0.03805,0.05415,-0.08751,-9.85098,-35.27547,34.59145,28.66797
11.55380,-0.10568,0.35693,-9.82682,0.02290,0.05415,-0.02657,-10.22403,-34.57527,34.58969,28.66602
11.57764,-0.11171,0.32577,-9.82929,0.02300,-0.00676,-0.02647,-10.96719,-35.29012,36.20981,28.68750
11.59390,-0.10644,0.37158,-9.79777,-0.09907,0.05421,-0.02662,-10.95518,-35.27243,35.00083,28.64062
11.61766,-0.10819,0.34002,-9.79175,-0.09888,-0.00670,0.03451,-10.58994,-34.57175,34.58286,28.65430
11.63376,-0.11291,0.34806,-9.80562,-0.03808,-0.00680,0.03451,-9.48740,-34.92941,34.58267,28.68164
11.65771,-0.10829,0.32791,-9.80614,-0.09903,0.05417,0.03451,-10.58213,-35.61887,34.60501,28.73633
11.67383,-0.10185,0.31830,-9.79844,0.02255,-0.00641,0.09554,-10.59764,-35.64203,36.21243,28.68164
11.69784,-0.12953,0.34162,-9.80860,0.02255,-0.00723,-0.02610,-10.59624,-34.93304,35.40628,28.66797
11.71370,-0.10226,0.33330,-9.80632,0.02317,-0.00661,0.03429,-10.59345,-35.28192,35.41181,28.65820
11.73802,-0.10632,0.33631,-9.80801,-0.03846,0.11433,0.03459,-10.59565,-34.57828,34.99776,28.67383
11.76196,-0.10954,0.34730,-9.80097,-0.03802,-0.06780,-0.02642,-10.57527,-35.60757,33.80440,28.68359
11.77754,-0.11049,0.34412,-9.78023,0.02277,0.05421,0.03459,-8.74324,-35.27213,33.77465,28.70703
11.80970,-0.10753,0.34587,-9.79548,0.02287,-0.06762,0.03439,-9.85652,-35.63589,35.39867,28.68945
11.81758,-0.11829,0.32385,-9.80366,0.02302,0.05414,0.03459,-10.59236,-34.92691,34.99755,28.65234
11.84187,-0.10003,0.34996,-9.81233,-0.03798,0.05414,-0.02639,-10.21492,-34.91323,33.80028,28.68359
11.85750,-0.10950,0.34586,-9.79268,-0.03783,-0.06768,0.03437,-10.22312,-35.27895,35.00438,28.71875
11.88163,-0.11153,0.33742,-9.80101,-0.03803,0.05414,-0.02605,-10.22139,-34.92373,34.59008,28.71875
11.89765,-0.09835,0.31943,-9.79772,-0.09885,-0.00686,0.03437,-10.22191,-34.92414,34.59562,28.70703
11.92162,-0.11938,0.33257,-9.80075,-0.03794,-0.00686,0.03448,-9.85496,-34.92693,34.59187,28.71680
11.93757,-0.12125,0.33750,-9.81064,-0.03814,0.05414,-0.02644,-9.86749,-34.94503,35.80769,28.67383
11.96164,-0.12970,0.34252,-9.79575,-0.03804,-0.00686,0.03438,-9.85274,-34.57125,34.17194,28.66602
11.97760,-0.12518,0.33433,-9.76969,0.02257,0.05414,-0.02561,-10.95626,-35.27291,35.00642,28.65430
12.00159,-0.12335,0.34209,-9.78046,-0.03804,0.05414,-0.02644,-9.85274,-34.21725,33.77399,28.70312
12.01756,-0.09454,0.32940,-9.77644,0.02296,0.05587,0.03630,-10.96017,-34.92477,35.01130,28.69141
12.04202,-0.12003,0.32986,-9.81413,-0.09868,0.05414,-0.02644,-10.23653,-34.59274,35.79939,28.72461
12.34624,-0.10108,0.33497,-9.79522,-0.09739,0.05496,-0.02729,-10.22762,-35.28543,35.41413,28.68164
12.36197,-0.11006,0.32757,-9.80195,0.01949,0.05240,0.03457,-10.95467,-35.62284,35.02375,28.68359
12.38563,-0.10752,0.33549,-9.78184,-0.09910,-0.00519,0.03284,-10.95119,-35.61736,34.62605,28.70117
12.40175,-0.10689,0.33439,-9.81922,-0.04160,0.11163,-0.02294,-9.85939,-34.93279,34.99592,28.70117
12.42599,-0.11297,0.33004,-9.80135,0.02291,0.11342,-0.02474,-10.23537,-34.23748,35.38630,28.64258
12.44169,-0.10311,0.34686,-9.80113,-0.09196,0.05413,0.02739,-10.60280,-34.23508,35.39571,28.69922
12.46605,-0.11285,0.33868,-9.79661,-0.03813,0.00030,0.09556,-10.57858,-35.61203,34.19747,28.70703
12.48959,-0.10839,0.34032,-9.79134,-0.09913,0.11345,-0.02474,-10.96481,-35.28439,35.81368,28.65430
12.50613,-0.11477,0.32513,-9.81506,0.02288,0.05416,0.02739,-9.85251,-34.92160,34.20040,28.66797
12.52976,-0.11544,0.33294,-9.80100,-0.03813,0.06134,-0.02645,-10.95114,-34.91201,34.19519,28.64844
12.54560,-0.10969,0.32742,-9.81272,-0.06803,0.05416,0.00345,-10.59689,-34.93290,35.40710,28.68164
12.56987,-0.11231,0.33886,-9.81211,-0.03814,-0.00685,0.00345,-10.23532,-35.29642,36.21570,28.72656
12.58565,-0.11512,0.33362,-9.80052,0.00822,0.00780,0.01991,-12.05856,-35.61967,35.43347,28.70117
12.60969,-0.10870,0.33476,-9.80639,0.02286,0.05416,0.00345,-9.86911,-34.59525,35.79187,28.68359
12.62586,-0.10923,0.34309,-9.81313,-0.03939,0.05416,-0.02645,-10.95602,-35.27299,35.00769,28.72266
12.64958,-0.09866,0.34016,-9.77548,-0.03817,0.11516,0.03456,-10.59518,-34.57816,34.99847,28.68359
12.66818,-0.11266,0.33222,-9.78549,-0.06806,0.02306,0.00467,-11.33249,-34.57808,35.40374,28.64648
12.69008,-0.09565,0.35882,-9.79569,0.02282,0.05417,-0.02645,-10.95944,-34.92427,35.00799,28.65234
12.70552,-0.10969,0.34849,-9.79253,-0.03819,-0.00683,-0.02645,-10.59103,-35.63081,35.41863,28.65820
12.72960,-0.11948,0.33551,-9.79434,-0.09919,0.05417,0.03456,-10.22604,-33.87104,34.17742,28.65820
12.74554,-0.10867,0.34340,-9.82282,0.08379,-0.00683,-0.02645,-10.59421,-34.22309,34.59002,28.70508
12.76974,-0.11596,0.33722,-9.78309,-0.03822,-0.00683,-0.14852,-10.59106,-35.63032,35.41863,28.71680
12.78563,-0.09025,0.34026,-9.79621,0.02279,0.05417,-0.02645,-9.49536,-34.58638,34.98748,28.68359
12.80994,-0.10699,0.34815,-9.78432,0.02401,0.05417,0.03456,-11.32836,-35.27632,35.42059,28.72656
12.83378,-0.11402,0.34557,-9.80686,0.02279,0.02428,0.00345,-10.59155,-34.57173,34.59002,28.69531
12.84958,-0.11699,0.34939,-9.77939,-0.04539,-0.05348,0.13504,-10.22363,-35.27876,35.00628,28.71094
12.87389,-0.10637,0.34629,-9.80092,-0.03821,-0.00682,-0.02646,-10.23043,-34.93574,35.40398,28.67773
12.88963,-0.10884,0.33956,-9.77008,-0.09921,0.05422,-0.02646,-9.86592,-34.58931,35.38905,28.67969
12.91391,-0.11269,0.35076,-9.79688,-0.13092,0.05422,0.00525,-11.70088,-34.57616,35.41915,28.69141
12.92950,-0.10582,0.33303,-9.78131,-0.03821,-0.00678,0.09558,-10.60713,-34.59551,36.20284,28.67969
12.95379,-0.10576,0.33849,-9.79734,0.02299,0.11515,0.03459,-10.59286,-34.92730,35.00330,28.71875
12.96993,-0.09739,0.34688,-9.80511,-0.03801,-0.00686,-0.02645,-10.61395,-34.25250,36.59998,28.69336
12.99360,-0.10640,0.34023,-9.78551,-0.03801,-0.00686,0.03456,-10.97161,-34.94195,36.21741,28.65234
13.00963,-0.10763,0.35517,-9.77905,0.08406,0.05415,0.03456,-10.58953,-35.27545,35.00354,28.69141
13.03369,-0.12252,0.34984,-9.79556,0.02302,0.05415,0.09556,-9.86053,-35.28734,35.40491,28.65430
13.04961,-0.11952,0.35766,-9.79501,-0.09899,0.05415,-0.02645,-10.23236,-34.58617,35.39195,28.67969
13.07453,-0.11176,0.34805,-9.78791,0.02302,0.05415,0.03456,-10.22659,-34.92992,35.00548,28.72266
13.08965,-0.11054,0.34805,-9.80388,0.02302,-0.00686,-0.02645,-10.96047,-34.92434,35.01300,28.67773
13.11462,-0.10521,0.34557,-9.78556,0.14503,0.11515,0.09556,-10.59353,-34.22219,34.57818,28.67773
13.12955,-0.10870,0.35589,-9.81340,0.02302,0.05415,-0.02645,-10.59979,-34.58376,35.40142,28.68750
13.15357,-0.12418,0.35583,-9.80212,-0.09899,-0.00686,-0.02645,-9.85809,-34.57755,34.58746,28.67578
13.17021,-0.10929,0.35292,-9.81752,-0.03798,0.11515,-0.02645,-10.59637,-34.93229,35.40142,28.68359
13.19355,-0.11298,0.35877,-9.78853,-0.03798,-0.00686,-0.02645,-10.96038,-35.27848,35.41071,28.70898
13.20978,-0.10462,0.34454,-9.79924,0.02302,0.11515,-0.02645,-10.58490,-34.91520,34.19684,28.72656
13.23413,-0.11128,0.33775,-9.77362,0.02302,-0.00686,0.03459,-11.32660,-35.27531,35.40876,28.68359
13.24949,-0.11058,0.34200,-9.79614,0.02302,0.05415,-0.02642,-10.58343,-34.56046,33.78864,28.65820
13.27424,-0.09745,0.34433,-9.80674,-0.03798,-0.06786,0.03462,-10.60748,-34.59583,36.20856,28.67188
13.29801,-0.11593,0.35223,-9.79091,0.08403,-0.00686,-0.08745,-10.21856,-35.27259,34.59723,28.65234
13.31355,-0.10104,0.35864,-9.80385,-0.09896,0.05415,-0.02648,-10.60406,-34.59046,35.81110,28.67383
13.33751,-0.10697,0.34315,-9.80031,0.02305,-0.06786,-0.02648,-10.59674,-34.93299,35.40754,28.68945
13.35409,-0.11535,0.35391,-9.77861,-0.03798,0.05415,0.03453,-11.31989,-35.61854,35.01154,28.69922
13.37784,-0.11174,0.33255,-9.80057,-0.03798,-0.00686,0.03453,-9.49469,-34.94080,35.38483,28.72266
13.39367,-0.09517,0.35330,-9.80272,-0.03798,0.05415,-0.02648,-9.84601,-34.91483,33.78131,28.67578
13.41763,-0.10938,0.34034,-9.78968,0.02299,-0.00686,-0.02648,-9.86011,-34.22929,34.58210,28.71094
13.43376,-0.10869,0.37345,-9.81635,0.02290,-0.00676,-0.02648,-10.95484,-33.85990,33.77594,28.69336
13.45775,-0.11242,0.34638,-9.80030,0.02298,0.05416,0.03453,-9.48999,-34.58060,34.57868,28.67578
13.47386,-0.12009,0.34511,-9.79435,-0.09903,-0.00685,-0.02645,-9.85938,-35.28764,35.39997,28.68359
13.49818,-0.11066,0.33280,-9.81429,0.08383,-0.00685,0.03434,-9.50904,-34.25541,36.18610,28.68750
13.51414,-0.10833,0.34530,-9.81516,-0.03763,-0.00665,-0.02627,-9.85230,-35.63041,34.99665,28.70312
13.53758,-0.09946,0.35581,-9.81063,-0.03844,-0.00685,0.03456,-10.59253,-34.22318,34.57331,28.69922
13.55367,-0.11969,0.35501,-9.77471,0.08320,0.05412,-0.02686,-10.58606,-35.27043,34.60542,28.70312
13.57828,-0.11048,0.35036,-9.78893,-0.09893,-0.00689,-0.02635,-10.23670,-34.59319,35.80073,28.69531
13.59389,-0.10828,0.34181,-9.79096,-0.03802,0.05412,0.09389,-10.95691,-35.27385,35.01264,28.65625
13.61803,-0.10794,0.36348,-9.80117,-0.03822,0.05392,0.03478,-9.86512,-34.58977,35.38789,28.68945
13.63363,-0.09731,0.35466,-9.81728,-0.03782,0.05412,0.03457,-10.94519,-35.61028,34.20625,28.70898
13.65775,-0.11222,0.34847,-9.79354,-0.03802,0.05496,-0.02561,-9.13367,-35.30437,36.19257,28.68555
13.67361,-0.11556,0.34530,-9.79085,-0.03717,0.05412,-0.02476,-10.23426,-34.94206,35.80659,28.70898
13.69753,-0.10811,0.35220,-9.79225,-0.03802,-0.00692,-0.02686,-10.96473,-35.28508,35.81393,28.71289
13.71404,-0.11464,0.34663,-9.79637,-0.09905,0.05058,0.03457,-11.32923,-35.63152,35.82893,28.69336
13.73803,-0.11301,0.34798,-9.79457,0.08320,-0.00609,-0.02644,-10.59143,-34.92644,34.98713,28.66797
13.76160,-0.10836,0.37098,-9.79775,0.02302,-0.00652,0.09478,-10.95545,-35.27263,34.99642,28.67188
13.77789,-0.09538,0.34923,-9.80814,-0.03628,0.10993,-0.02473,-11.69715,-34.92497,35.41293,28.69727
13.81005,-0.11737,0.35319,-9.77693,0.02302,0.05418,0.09551,-10.59656,-34.93334,35.40165,28.70703
13.81792,-0.09584,0.35119,-9.81944,-0.03799,0.11509,0.03460,-9.49207,-34.93582,34.98710,28.64648
13.84180,-0.12358,0.35892,-9.80101,-0.03883,-0.00692,-0.08576,-9.86170,-34.58401,34.98532,28.72656
13.85749,-0.11163,0.36625,-9.78275,-0.03883,-0.00692,0.03460,-10.60144,-35.29348,36.20798,28.67773
13.88188,-0.10267,0.35465,-9.78322,-0.15748,0.05494,-0.02641,-10.22596,-34.93020,34.99509,28.68945
13.89832,-0.12629,0.34918,-9.78890,-0.03816,0.11512,0.03460,-10.59339,-34.92782,35.00445,28.68555
13.92158,-0.10340,0.36028,-9.78053,-0.03796,-0.00866,-0.02641,-11.34388,-34.94624,36.63140,28.67188
13.93817,-0.10856,0.35578,-9.77509,0.02308,0.05408,0.03545,-10.22278,-34.92429,34.59234,28.68359
13.96303,-0.10051,0.34348,-9.79112,-0.03622,-0.06622,0.09389,-10.59876,-34.93412,35.41412,28.70312
13.97793,-0.11058,0.32654,-9.80585,-0.03443,0.05408,-0.08042,-10.96399,-34.57621,35.00348,28.74609
14.00181,-0.10038,0.35239,-9.79250,0.02307,0.05236,0.09219,-9.48743,-35.63383,34.99944,28.67383
14.01758,-0.11340,0.34249,-9.79997,0.08066,0.05236,-0.02470,-10.22864,-34.22758,34.58708,28.68945
14.04169,-0.11491,0.34521,-9.78085,-0.09195,0.00011,0.03109,-10.60193,-34.94047,35.81169,28.68555
14.06592,-0.08621,0.35742,-9.79738,-0.03797,0.11510,-0.02290,-9.12830,-34.23637,34.57536,28.65625
14.08162,-0.12671,0.34733,-9.79203,-0.03624,-0.00349,-0.02641,-10.96326,-34.57645,34.99187,28.65625
14.10580,-0.11027,0.33794,-9.79635,0.01954,0.05056,0.03108,-9.48963,-34.93143,34.59026,28.66797
14.12191,-0.10549,0.32667,-9.79459,0.08406,0.11507,-0.02641,-9.85364,-34.21854,33.77092,28.67578
14.14578,-0.09803,0.32793,-9.81275,0.00868,0.00021,0.08125,-10.24012,-34.24483,35.78459,28.71289
14.16175,-0.11465,0.34402,-9.78626,-0.09190,0.05412,0.08844,-10.23949,-34.24384,35.79528,28.65039
14.18571,-0.11662,0.34935,-9.80537,0.01943,0.11512,-0.02289,-10.97093,-34.94159,36.21130,28.64844
14.20169,-0.12779,0.33560,-9.81445,-0.09910,0.11512,-0.02640,-11.32787,-34.21796,34.59704,28.66602
14.22594,-0.10838,0.33729,-9.78439,0.05397,-0.03795,0.00471,-9.84642,-34.91523,33.78650,28.68945
14.24159,-0.11826,0.33134,-9.80378,-0.09910,-0.00684,-0.02640,-10.60960,-34.24726,36.20251,28.72461
14.26602,-0.09449,0.35157,-9.78442,-0.09910,-0.00684,0.03460,-10.22533,-35.28437,35.39734,28.71875
14.28155,-0.09928,0.35098,-9.78261,-0.09910,0.05416,0.03460,-10.22062,-34.92402,34.59118,28.70117
14.30778,-0.11432,0.33937,-9.79790,0.02169,0.14627,-0.02640,-10.97355,-34.23944,35.81482,28.65820
14.32166,-0.09147,0.33840,-9.78731,-0.16008,0.11515,-0.02640,-9.85538,-35.28144,35.00232,28.68359
14.34593,-0.10165,0.33919,-9.79487,-0.03807,0.02299,0.00471,-10.59220,-35.28092,35.40173,28.71680
14.36165,-0.12604,0.33492,-9.80200,-0.03807,-0.00692,0.03462,-9.86661,-33.88541,34.98010,28.67578
14.38558,-0.10450,0.33916,-9.81394,0.08394,0.11509,-0.02639,-10.96036,-34.57389,34.99124,28.67969
14.40217,-0.11776,0.35102,-9.78846,0.08394,-0.00692,0.09562,-10.22403,-34.92838,34.98925,28.67188
14.42602,-0.11466,0.35357,-9.82462,-0.09904,0.05412,-0.02639,-10.59025,-34.92518,34.98741,28.65234
14.44156,-0.11117,0.34505,-9.79380,-0.09904,0.11512,-0.02639,-11.32120,-34.91452,34.60289,28.66016
14.46560,-0.10164,0.33720,-9.78432,0.02297,0.05412,0.03462,-10.22159,-35.27781,35.00035,28.67383
14.48206,-0.10578,0.36605,-9.80743,0.02297,-0.00689,-0.02639,-10.22159,-35.27781,35.00035,28.68359
14.50607,-0.10634,0.35172,-9.81045,-0.16001,0.05412,0.03462,-10.96964,-34.94065,36.20641,28.62500
14.52194,-0.10997,0.34388,-9.80798,0.02297,0.05412,0.03462,-10.59073,-34.92575,34.99352,28.65625
14.54559,-0.08847,0.32956,-9.80915,0.02297,0.05412,0.03462,-10.22110,-35.27755,34.99529,28.68945
14.56959,-0.12256,0.36002,-9.78442,0.02297,0.05412,-0.02639,-10.22841,-34.93502,35.39861,28.72070
14.58582,-0.08734,0.35876,-9.79218,-0.03804,0.05412,0.03462,-10.21989,-34.92282,34.58660,28.65234
14.60184,-0.11409,0.32293,-9.78663,-0.03804,0.05412,0.03462,-10.95817,-34.92355,35.00286,28.70117
14.62556,-0.11831,0.34271,-9.79667,0.02300,0.05412,-0.02639,-10.95781,-35.98214,35.82610,28.66211
14.64183,-0.10767,0.34973,-9.77077,-0.03804,0.11515,-0.02639,-10.22637,-34.22628,34.58684,28.65430
14.66566,-0.11608,0.33684,-9.78832,0.08397,-0.00686,0.03459,-10.22604,-34.57980,34.97893,28.65234
14.68165,-0.11765,0.35170,-9.79432,-0.03804,0.05412,-0.02639,-10.59543,-33.87423,34.57952,28.71875
14.70580,-0.09941,0.34915,-9.76115,-0.03804,0.11512,-0.02639,-10.59403,-34.93185,35.39104,28.69141
14.72159,-0.12321,0.35309,-9.80024,0.02297,-0.00689,-0.02639,-10.58479,-35.27023,34.60686,28.70898
14.74601,-0.10940,0.34751,-9.80271,-0.03804,-0.00689,0.03462,-10.60064,-34.23507,35.39104,28.68750
14.76998,-0.11642,0.34161,-9.79606,-0.03805,0.05412,0.03454,-10.22137,-34.92379,34.59058,28.69141
14.78574,-0.11653,0.35041,-9.78693,0.08390,0.05412,-0.02641,-10.95770,-34.56929,34.59256,28.66797
14.82609,-0.10826,0.34201,-9.77782,0.02296,0.05412,0.03460,-10.59490,-34.57798,34.99198,28.62695
14.82609,-0.12777,0.33681,-9.79248,0.02296,0.05412,0.03460,-9.85418,-34.57257,34.18876,28.65234
14.84957,-0.10536,0.34797,-9.79653,0.08378,-0.00680,-0.02628,-10.24139,-34.95319,36.60672,28.68555
14.86597,-0.10456,0.34860,-9.78059,-0.09896,0.05412,0.03460,-10.59368,-34.22321,34.58329,28.68359
14.88972,-0.11612,0.36021,-9.78524,-0.03798,0.11503,-0.02638,-10.59438,-34.57770,34.98636,28.68164
14.90567,-0.10180,0.34765,-9.79013,-0.03798,-0.00680,-0.02638,-10.60170,-34.23517,35.38968,28.67578
14.92978,-0.11459,0.36378,-9.78995,-0.03798,0.05393,0.03460,-10.22743,-34.58063,34.98270,28.66992
14.94568,-0.10148,0.35381,-9.79039,-0.03798,0.05414,0.03419,-10.23874,-34.24396,35.78934,28.68945
14.96964,-0.11587,0.34598,-9.78681,0.02302,0.05329,-0.02642,-10.23195,-34.58698,35.39164,28.65820
14.98566,-0.10325,0.32988,-9.80034,-0.15923,0.05414,-0.08660,-10.93995,-35.60358,33.79203,28.69922
15.00968,-0.09355,0.34288,-9.79290,0.08149,0.05329,-0.02728,-9.49757,-34.59283,35.38382,28.66016
15.02597,-0.11324,0.31645,-9.78711,-0.03789,0.05404,-0.02633,-10.58741,-34.92194,34.59964,28.68555
15.04963,-0.10827,0.33656,-9.78599,0.08058,0.05414,0.03287,-10.59421,-34.57892,34.99735,28.71484
15.06601,-0.10469,0.33342,-9.79050,-0.03801,0.05414,-0.02642,-10.22654,-35.63947,35.81083,28.66406
15.08970,-0.12751,0.33445,-9.80895,-0.03801,-0.00687,-0.02642,-10.59104,-34.92706,34.99686,28.68359
15.10555,-0.10741,0.32944,-9.78919,0.02650,0.05063,0.03107,-10.96799,-34.23273,35.39847,28.67383
15.12976,-0.11660,0.31498,-9.78194,-0.09899,0.05415,0.03459,-9.86643,-34.24030,35.37589,28.67969
15.14590,-0.12567,0.34021,-9.80713,-0.03624,0.05415,-0.02471,-9.85056,-35.27546,34.59171,28.67773
15.16970,-0.11478,0.33730,-9.78577,-0.03797,-0.00335,0.03108,-10.95993,-34.22175,34.59748,28.69922
15.19399,-0.12614,0.33454,-9.79570,-0.03797,0.05244,-0.02471,-10.22947,-35.29108,35.81037,28.69531
15.20983,-0.10821,0.31956,-9.79864,-0.03079,-0.00686,-0.01925,-10.95359,-34.91853,34.59748,28.68750
15.22971,-0.10492,0.34505,-9.78143,0.05478,0.03950,0.08097,-10.22702,-34.58161,34.99323,28.70117
15.25006,-0.11303,0.32608,-9.78393,0.00843,-0.00686,0.00290,-10.59909,-34.93952,35.80915,28.70898
15.26565,-0.12077,0.34483,-9.80457,-0.03793,-0.00686,0.06632,-10.58986,-34.57282,34.59431,28.66992
15.28984,-0.11492,0.35834,-9.80312,0.02307,0.06882,0.01996,-10.59945,-33.88093,34.98664,28.68555
15.31370,-0.11942,0.34344,-9.79816,-0.03793,0.11518,-0.08392,-9.83431,-35.25300,32.98469,28.67578
15.33069,-0.09924,0.35044,-9.79269,-0.03793,0.05418,-0.02642,-10.22860,-35.29108,35.80500,28.67188
15.35368,-0.12524,0.35967,-9.80949,-0.09897,0.08407,0.00348,-10.58187,-35.97419,35.01350,28.67969
15.36970,-0.10347,0.35156,-9.77429,-0.03805,-0.00692,0.03459,-10.58885,-34.92141,34.59988,28.66797
15.39426,-0.12951,0.32849,-9.83337,-0.03805,0.05409,-0.02642,-9.86717,-34.94468,35.80203,28.71680
15.40977,-0.12020,0.35457,-9.77130,-0.03805,-0.06792,0.09559,-10.22484,-34.57529,34.59012,28.65820
15.43376,-0.12020,0.34587,-9.79013,-0.06916,0.14497,0.00471,-10.22885,-34.58119,34.99344,28.70898
15.45019,-0.09817,0.35637,-9.77848,-0.03805,0.11508,0.03460,-10.22326,-35.27894,35.00450,28.69336
15.47392,-0.11478,0.34582,-9.78494,-0.00692,0.02413,-0.05750,-10.23634,-34.59242,35.79454,28.69727
15.48959,-0.11664,0.34863,-9.78076,0.02299,0.05403,-0.02639,-10.59743,-34.22865,34.98058,28.69141
15.51396,-0.09199,0.33923,-9.83295,-0.03805,0.05403,0.03465,-10.59759,-35.28724,35.80919,28.70703
15.53659,-0.11127,0.36120,-9.79035,-0.03805,0.05403,0.03465,-10.21917,-35.27275,34.60118,28.70703
15.55386,-0.11546,0.35158,-9.77664,-0.03805,-0.00698,0.03465,-10.60686,-34.24150,35.80333,28.68164
15.56964,-0.10878,0.35116,-9.81513,-0.09908,-0.00698,0.03465,-10.97039,-34.58721,35.80691,28.70898
15.59398,-0.09271,0.33785,-9.79323,-0.03805,0.05403,-0.02636,-11.32415,-35.27080,35.02078,28.68945
15.60962,-0.11717,0.33127,-9.78725,-0.09905,0.05403,0.03465,-9.87005,-34.59551,35.79568,28.65625
15.63390,-0.09815,0.33599,-9.77427,0.02296,-0.00698,-0.02636,-9.49651,-34.94121,35.39407,28.70703
15.64962,-0.09035,0.32596,-9.80321,-0.09905,0.05403,-0.08736,-10.95940,-34.92376,35.00027,28.71094
15.67365,-0.10229,0.33189,-9.79268,0.02296,0.05403,-0.02636,-10.23186,-34.58587,35.38479,28.67773
15.69804,-0.11778,0.33251,-9.79432,-0.03805,0.05403,0.03468,-9.49895,-34.59225,35.38858,28.67969
15.71370,-0.11421,0.34566,-9.80086,-0.03805,0.05403,-0.02633,-10.95794,-35.62741,35.42019,28.69922
15.72976,-0.10779,0.33897,-9.76961,0.02296,0.05403,-0.02633,-10.95481,-33.85886,33.76883,28.69727
15.75391,-0.10356,0.34133,-9.77257,-0.09905,0.05403,0.03471,-10.58469,-34.91452,34.19583,28.66406
15.76986,-0.10408,0.33912,-9.79379,0.02296,-0.00701,0.03471,-10.59672,-34.93221,35.40579,28.69141
15.79390,-0.09528,0.34535,-9.80420,-0.09905,0.11500,-0.02630,-10.22855,-34.58015,34.99319,28.68359
15.82606,-0.10765,0.33782,-9.78435,-0.03805,0.05400,-0.02630,-10.59818,-34.22835,34.99142,28.68359
15.83408,-0.10885,0.33207,-9.79667,0.02299,-0.06801,-0.02630,-9.85746,-34.57698,34.58614,28.71094
15.85769,-0.12848,0.35591,-9.81912,-0.03805,-0.00701,0.03471,-10.58695,-34.56550,34.19039,28.68945
15.87370,-0.10535,0.35273,-9.77972,0.02296,0.05400,-0.02630,-10.21806,-35.27155,34.59542,28.64844
15.89783,-0.11051,0.33202,-9.78604,-0.03805,0.05400,-0.02630,-10.94755,-35.26008,34.19967,28.71680
15.91372,-0.10881,0.34801,-9.80206,-0.09908,0.17601,0.03471,-9.86747,-35.29792,36.20358,28.71680
15.93793,-0.10842,0.32665,-9.79070,0.08378,-0.06777,0.09565,-10.59794,-34.22858,34.99068,28.70312
15.95387,-0.12924,0.34099,-9.80586,-0.09871,-0.00704,0.03453,-11.32890,-34.57185,35.00373,28.66406
15.97782,-0.10750,0.35391,-9.80574,-0.09903,0.05412,-0.02640,-9.86221,-34.58426,34.99584,28.70703
15.99359,-0.08989,0.32820,-9.78216,0.02286,0.05412,0.03451,-10.21964,-35.62723,35.00500,28.68359
16.01769,-0.10108,0.34349,-9.80256,-0.03818,0.05422,0.03451,-10.96231,-34.57547,35.00152,28.69141
16.03360,-0.10770,0.33866,-9.81166,-0.09906,-0.00691,0.09564,-10.58926,-34.92167,34.60552,28.68555
16.05824,-0.12311,0.34004,-9.78733,0.02270,-0.00671,0.09544,-10.60356,-34.59012,35.80376,28.69531
16.07380,-0.10290,0.31714,-9.78472,0.02291,0.05451,-0.02596,-10.59956,-34.58422,35.40044,28.69336
16.09770,-0.11563,0.33505,-9.77656,0.02291,-0.00692,0.09397,-10.23335,-34.94140,35.79986,28.66406
16.11380,-0.11969,0.32834,-9.79514,-0.09910,-0.00692,-0.02468,-10.59663,-34.93312,35.40606,28.73828
16.13810,-0.12712,0.33284,-9.78199,-0.03810,0.05326,0.03379,-10.22920,-34.93550,35.39665,28.69922
16.15405,-0.09921,0.32580,-9.79828,-0.03810,0.05410,-0.02630,-10.96894,-34.23238,35.39875,28.71094
16.17766,-0.12315,0.33789,-9.79692,-0.09739,-0.00690,-0.02640,-10.95587,-34.91890,34.60872,28.71680
16.19393,-0.09448,0.33234,-9.80030,-0.03810,0.05410,-0.02557,-10.58527,-35.26973,34.59940,28.70703
16.21813,-0.13150,0.34472,-9.77862,-0.03810,-0.06620,0.09394,-9.10285,-36.67110,34.20877,28.73438
16.23367,-0.10658,0.33331,-9.81127,0.02294,0.05410,0.03464,-9.86066,-34.22969,34.58646,28.67969
16.25762,-0.10960,0.34856,-9.78863,0.02294,0.05238,-0.02465,-10.58087,-35.26387,34.19632,28.74414
16.27394,-0.11074,0.33446,-9.80048,-0.09736,0.05410,0.03119,-10.22931,-34.93575,35.40238,28.68555
16.29826,-0.10511,0.32718,-9.78972,0.02294,0.05059,0.03464,-11.32599,-35.27584,35.41354,28.64844
16.32182,-0.11534,0.33558,-9.78321,-0.09566,-0.00691,-0.02636,-10.96100,-34.92891,35.39294,28.68945
16.33781,-0.10929,0.33324,-9.79196,0.06243,0.05410,0.02747,-9.85455,-35.28121,34.99524,28.72070
16.35675,-0.12411,0.33643,-9.79063,0.02294,-0.05326,0.02000,-9.85176,-35.63008,35.00077,28.69727
16.37797,-0.11040,0.33110,-9.79619,-0.03807,0.00774,-0.01171,-10.96309,-35.28511,35.81864,28.70117
16.39395,-0.10549,0.33454,-9.78471,-0.05272,0.10045,-0.01171,-10.59493,-34.93306,35.40604,28.67578
16.41758,-0.10981,0.34658,-9.79780,-0.02342,0.05410,0.02000,-10.58412,-35.27022,34.60477,28.70898
16.44169,-0.11282,0.33416,-9.78236,-0.03807,0.11510,-0.08035,-10.22768,-34.93550,35.39627,28.68945
16.45839,-0.09742,0.34021,-9.78847,-0.03807,0.05410,-0.08738,-10.58657,-34.92092,34.59354,28.65820
16.48165,-0.11448,0.34797,-9.78682,0.00829,0.05410,-0.07273,-10.59963,-34.93944,35.81424,28.67188
16.49805,-0.10872,0.32649,-9.79430,-0.03807,-0.00691,-0.02638,-10.22707,-34.58104,34.99247,28.66406
16.52179,-0.08905,0.33062,-9.78669,-0.03807,0.05410,-0.02638,-10.96437,-35.63964,36.22586,28.67773
16.53778,-0.11396,0.33829,-9.78605,-0.00816,0.08521,-0.02638,-10.60182,-34.58983,35.80228,28.68359
16.56158,-0.11912,0.34118,-9.79551,-0.03805,-0.00689,0.00352,-10.94704,-35.26122,34.20365,28.68945
16.57765,-0.11053,0.33311,-9.80086,0.02299,0.11515,-0.02645,-9.49924,-34.59295,35.39555,28.67969
16.60189,-0.10541,0.33026,-9.78516,-0.12887,0.05415,0.03334,-10.22092,-35.62811,35.02201,28.68555
16.61772,-0.11472,0.35528,-9.80272,-0.09897,0.05415,-0.02645,-10.59275,-34.22186,34.57792,28.69141
16.64208,-0.08425,0.32171,-9.80208,-0.09897,0.05415,0.03456,-11.33006,-34.92645,35.41435,28.68164
16.66301,-0.12307,0.34991,-9.79736,0.08401,-0.06786,0.03456,-10.95847,-34.56902,34.60380,28.66602
16.68179,-0.10633,0.33737,-9.81155,-0.09897,0.11512,-0.02645,-10.95864,-34.92303,35.00151,28.63281
16.69785,-0.10340,0.36125,-9.79863,-0.03794,-0.06786,-0.02645,-10.58828,-34.92033,34.60014,28.65234
16.72174,-0.11947,0.34335,-9.80384,-0.03794,0.05415,0.03456,-9.49551,-34.94048,35.39555,28.65234
16.73761,-0.11596,0.33544,-9.77718,0.08407,0.11515,0.09556,-10.58340,-34.56011,33.79399,28.70508
16.76204,-0.11583,0.33204,-9.82098,-0.03794,0.05415,0.03456,-9.85683,-35.63531,35.41117,28.71680
16.77771,-0.12003,0.33855,-9.80911,0.08407,-0.00686,-0.02645,-10.59609,-34.57769,35.01005,28.71680
16.80175,-0.10638,0.34034,-9.79502,-0.03794,-0.00686,-0.02645,-10.96816,-34.93560,35.82597,28.67969
16.83389,-0.10998,0.33418,-9.76835,-0.03794,0.05415,0.03456,-10.97095,-33.88189,35.38896,28.69336
16.84174,-0.11167,0.34159,-9.81327,-0.03794,0.11515,-0.08745,-10.96590,-34.58013,35.40567,28.65430
16.85781,-0.09207,0.34685,-9.78794,-0.03794,-0.06783,-0.02645,-10.22517,-34.92876,35.00039,28.70508
16.88212,-0.10574,0.34574,-9.80500,-0.03794,0.11515,0.03456,-10.59871,-33.52447,34.57315,28.71680
16.90586,-0.12065,0.34741,-9.78553,-0.03794,0.11515,-0.02645,-10.58249,-35.61822,34.61187,28.66992
16.92186,-0.09691,0.33964,-9.79318,-0.03794,-0.00686,-0.02645,-10.23947,-34.59771,36.19879,28.68945
16.94602,-0.11408,0.32889,-9.78906,0.02307,0.05415,-0.02645,-10.23267,-34.94073,35.80108,28.71680
16.96191,-0.11467,0.33776,-9.78011,0.02307,0.05415,0.03456,-9.50220,-34.59771,35.79374,28.65625
16.98587,-0.10578,0.33790,-9.79974,0.02307,0.05415,0.03456,-10.94947,-35.61529,34.61600,28.70898
17.00168,-0.11408,0.33849,-9.78964,0.02307,0.11515,0.03456,-9.85767,-34.93121,34.99125,28.68359
17.02570,-0.11180,0.35558,-9.79611,-0.03794,0.05415,-0.02648,-9.85767,-34.93121,34.99125,28.68945
17.04215,-0.10162,0.34047,-9.80582,0.08407,-0.06786,0.09553,-10.23316,-34.94062,35.80716,28.67969
17.06670,-0.10374,0.34853,-9.78252,-0.09867,0.11488,-0.02636,-10.95386,-34.56245,34.19584,28.69531
17.08214,-0.10968,0.31701,-9.78594,-0.03806,-0.00676,-0.02625,-10.58936,-35.27485,35.00980,28.67773
17.10614,-0.11990,0.35061,-9.78556,-0.09888,0.11500,-0.02641,-10.22608,-35.28313,35.40360,28.68555
17.12157,-0.10909,0.32893,-9.77142,-0.03788,0.05412,0.03457,-9.49757,-34.59074,35.37937,28.69531
17.14567,-0.12756,0.34611,-9.80259,-0.09885,0.05402,-0.02644,-9.86109,-35.64153,35.81443,28.65430
17.16291,-0.10645,0.33962,-9.79553,-0.03788,0.11506,0.03454,-9.49732,-34.23723,34.98191,28.71094
17.18564,-0.11814,0.33637,-9.79190,-0.03825,0.11475,-0.02625,-9.86242,-34.93838,35.39353,28.70898
17.20170,-0.11293,0.33251,-9.80574,-0.03805,0.05393,-0.02645,-10.96301,-34.93041,35.41045,28.67773
17.22569,-0.11446,0.34517,-9.80440,0.02299,-0.00604,0.03541,-10.22424,-34.92928,34.98833,28.71680
17.24162,-0.11921,0.34269,-9.79810,0.02215,0.05328,-0.02645,-10.58410,-34.91550,34.19683,28.71289
17.26612,-0.10096,0.34144,-9.79952,0.02258,-0.00607,0.03416,-9.86828,-34.24119,35.39410,28.67383
17.28167,-0.10863,0.31846,-9.80364,-0.09882,0.05402,-0.02636,-9.87300,-34.60154,36.20074,28.67383
17.30600,-0.11472,0.34328,-9.77726,-0.03632,-0.00690,-0.02646,-10.23872,-34.59793,36.19297,28.70312
17.32188,-0.11688,0.34427,-9.78527,-0.03805,-0.00690,-0.02646,-10.22895,-34.93583,35.40342,28.67383
17.34587,-0.10639,0.35714,-9.79690,-0.04149,0.11170,-0.02301,-10.95014,-34.91214,34.19541,28.70117
17.36176,-0.12626,0.33929,-9.77819,0.01945,0.05765,0.03104,-10.22162,-34.92444,34.60215,28.68359
17.38567,-0.10583,0.33260,-9.80154,-0.09908,0.05586,-0.02646,-10.59516,-34.57874,35.00376,28.69922
17.40970,-0.11817,0.35422,-9.79809,-0.03765,0.05455,0.03455,-10.59480,-35.63733,35.82700,28.67188
17.42585,-0.12344,0.34000,-9.80555,-0.03806,-0.00689,0.03455,-10.59673,-33.87464,34.58970,28.66211
17.45024,-0.11831,0.34018,-9.76111,-0.03848,0.11476,0.03455,-10.58784,-34.92054,34.60075,28.70703
17.46594,-0.10959,0.33242,-9.79061,0.02274,-0.00664,0.03455,-10.22505,-34.92923,35.00017,28.69727
17.48976,-0.10868,0.33872,-9.79350,-0.03808,0.05418,-0.02606,-9.86397,-35.29324,35.81413,28.71680
17.50570,-0.12256,0.33838,-9.79833,-0.03808,0.05398,-0.02648,-10.95576,-35.27224,35.00749,28.72070
17.52964,-0.09820,0.33107,-9.78832,0.08375,0.11519,0.03435,-10.59810,-35.64163,36.21843,28.68359
17.54564,-0.09558,0.35517,-9.80538,-0.03851,0.05376,0.03455,-10.59288,-35.28103,35.40642,28.69531
17.56984,-0.10683,0.33716,-9.78946,0.14448,0.11519,-0.02688,-10.95176,-35.26645,34.60368,28.68359
17.58560,-0.11015,0.33810,-9.79831,0.02198,0.05501,-0.02563,-9.85020,-34.92050,34.18913,28.70312
17.60965,-0.11312,0.33527,-9.80272,0.02282,-0.00602,0.09474,-10.22374,-34.57479,34.59074,28.69922
17.62588,-0.10928,0.33443,-9.80538,-0.03818,0.11434,-0.02563,-9.86363,-34.23446,34.98479,28.69727
17.64979,-0.11353,0.33451,-9.79668,-0.09922,0.05501,0.03456,-10.22935,-34.23088,34.97734,28.66797
17.66561,-0.10141,0.34436,-9.78843,-0.03476,-0.00514,-0.02474,-10.60191,-34.58928,35.79863,28.68359
17.68979,-0.11728,0.33421,-9.78820,0.01928,0.11169,0.03456,-10.96251,-34.22502,34.97930,28.68750
17.70577,-0.11570,0.33589,-9.78713,0.02998,0.05419,0.02738,-9.85606,-35.63615,35.40459,28.68750
17.72970,-0.11976,0.34087,-9.79219,0.02280,0.05419,0.03456,-9.48912,-35.28508,35.00322,28.70508
17.74766,-0.11992,0.34020,-9.78829,-0.03820,0.11519,-0.01928,-10.22203,-35.27867,34.99954,28.67969
17.76970,-0.10994,0.33391,-9.79989,-0.03820,0.00783,-0.02646,-10.58335,-35.97349,35.01436,28.73047
17.79380,-0.11481,0.33471,-9.79800,-0.08472,-0.00692,-0.02645,-10.22156,-35.27788,34.98827,28.68555
17.80982,-0.09876,0.33519,-9.78380,-0.09908,0.05409,-0.02645,-10.58557,-35.62407,34.99756,28.71875
17.84208,-0.08936,0.34881,-9.78302,0.02128,0.05409,0.03373,-10.22376,-34.92876,34.97714,28.69922
17.84976,-0.11324,0.33600,-9.79256,-0.03804,0.05064,0.03458,-9.48889,-35.28447,34.99196,28.67773
17.87364,-0.11778,0.33024,-9.78369,0.01945,0.05409,-0.02994,-10.96350,-34.93022,35.40480,28.66211
17.89026,-0.11600,0.33240,-9.79046,0.08226,0.05409,0.03116,-9.49475,-34.58623,34.97536,28.66797
17.91371,-0.10692,0.34402,-9.81478,-0.03090,0.05409,-0.01205,-10.22620,-34.92998,34.99400,28.68359
17.92995,-0.10919,0.33143,-9.79870,0.03758,0.05409,0.01996,-10.59241,-34.92677,34.99216,28.65430
17.95357,-0.12060,0.34160,-9.80272,0.02121,0.05409,-0.02469,-10.59693,-34.93308,35.40110,28.64258
17.97008,-0.11613,0.33923,-9.79029,0.01575,0.05409,-0.01923,-10.95704,-36.33250,35.83591,28.68945
17.99425,-0.11241,0.32519,-9.79429,0.01941,0.05409,0.03460,-10.59400,-35.28269,35.40671,28.72070
18.01763,-0.07881,0.33710,-9.80565,0.02124,0.05409,-0.02558,-10.23390,-33.88328,34.97190,28.67578
18.03400,-0.11940,0.32883,-9.80350,-0.03851,0.05409,0.03417,-9.87452,-34.60252,36.20041,28.67773
18.05798,-0.11940,0.34182,-9.76984,-0.09567,0.05409,-0.02644,-11.32960,-34.57325,35.00022,28.70898
18.07409,-0.11874,0.32548,-9.78414,0.02121,0.05409,-0.02471,-10.94923,-35.26221,34.20090,28.65039
18.09808,-0.10689,0.33800,-9.77951,-0.03091,-0.01409,0.02741,-9.86817,-34.94581,35.80246,28.69336
18.11367,-0.10057,0.32381,-9.79580,-0.03091,0.10078,0.02741,-10.58937,-34.92213,34.59446,28.68359
18.13767,-0.10264,0.32943,-9.80651,-0.09909,0.00013,-0.01940,-10.22877,-34.58155,34.98288,28.66016
18.15368,-0.10723,0.32518,-9.79396,0.00858,0.04695,0.03458,-9.49928,-34.59303,35.37864,28.68945
18.17767,-0.10965,0.33429,-9.79997,-0.07754,0.10795,-0.02642,-10.22877,-34.58155,34.98288,28.69336
18.19918,-0.10558,0.32327,-9.77766,0.06931,0.00773,-0.01177,-9.85841,-34.57885,34.58152,28.67773
18.21778,-0.10386,0.33996,-9.79712,-0.03805,0.05409,0.01993,-10.59718,-34.93407,35.40085,28.66992
18.23405,-0.12212,0.32982,-9.78237,0.01593,0.05409,0.03458,-10.59090,-35.27758,35.00876,28.71484
18.25763,-0.09865,0.32357,-9.79606,-0.03805,0.03944,-0.01177,-10.58986,-35.27675,34.99756,28.69141
18.27387,-0.09463,0.34101,-9.78122,-0.00694,0.02419,0.03458,-10.23342,-34.94203,35.78907,28.71289
18.30060,-0.11723,0.32196,-9.79384,0.00860,0.00025,-0.02642,-10.96779,-34.93686,35.80230,28.67969
18.32192,-0.11582,0.33675,-9.80256,-0.06977,-0.00693,-0.01177,-12.06643,-35.63218,36.22783,28.64453
18.33776,-0.11096,0.33056,-9.77867,-0.03806,-0.00693,0.06568,-10.22463,-34.57553,34.57940,28.68555
18.36233,-0.10444,0.31517,-9.80911,-0.03806,-0.06794,-0.02642,-10.23209,-35.29184,35.81084,28.66992
18.37784,-0.11502,0.33412,-9.79716,-0.03806,0.05407,0.03458,-10.59269,-35.63242,35.42241,28.68359
18.40409,-0.10555,0.33494,-9.79379,-0.06795,0.05412,0.03459,-10.95757,-34.56878,34.58701,28.66992
18.41771,-0.10815,0.34269,-9.79913,0.08390,-0.00689,0.03459,-10.95931,-34.92401,35.00132,28.67969
18.44177,-0.11954,0.34504,-9.78548,-0.09908,-0.00689,0.03459,-11.32796,-34.57147,34.98834,28.67383
18.45795,-0.10760,0.32223,-9.77948,0.02293,0.11512,0.03459,-9.85921,-35.28631,35.38751,28.64258
18.48168,-0.10340,0.32468,-9.79018,-0.03808,0.05412,0.09559,-11.32894,-34.92620,35.39701,28.67383
18.49795,-0.10514,0.32350,-9.79726,0.02293,0.05412,-0.02642,-10.60189,-34.23480,35.38974,28.66016
18.52183,-0.11112,0.32711,-9.79726,0.02293,0.11512,0.03459,-9.85872,-34.93206,34.99008,28.71680
18.53761,-0.10344,0.34376,-9.78017,-0.09908,0.05412,0.03459,-9.86222,-34.93755,35.38754,28.67578
18.56212,-0.10459,0.33129,-9.79550,-0.09908,0.11512,0.03459,-10.96965,-33.52739,34.97348,28.65234
18.57771,-0.13559,0.33609,-9.79246,-0.03808,0.05412,0.03459,-10.97782,-34.59770,36.60824,28.72852
18.60304,-0.11759,0.32963,-9.82211,0.02293,-0.00692,-0.02642,-10.59452,-35.28130,35.41684,28.69336
18.61798,-0.11127,0.33175,-9.76055,0.02293,-0.00692,0.09559,-9.86210,-34.93681,35.38682,28.67969
18.64175,-0.11893,0.34021,-9.78657,-0.03811,0.05409,0.03459,-10.95585,-35.27177,35.00596,28.66992
18.65759,-0.12305,0.34990,-9.80082,0.02290,0.11509,0.03459,-10.23173,-34.93950,35.78819,28.70703
18.68170,-0.10642,0.33185,-9.78661,-0.03811,0.05409,0.03459,-10.59233,-35.28008,35.40001,28.70898
18.69833,-0.10881,0.34201,-9.77779,0.02290,0.05409,-0.02642,-10.96196,-34.92827,35.39823,28.64844
18.72171,-0.10393,0.32837,-9.81499,-0.03811,0.05409,0.03459,-10.23051,-35.64360,36.20829,28.64062
18.73766,-0.11766,0.33362,-9.79669,-0.03811,0.05409,0.09562,-10.22109,-34.92290,34.59599,28.67578
18.76183,-0.10953,0.33577,-9.75193,-0.03811,-0.06792,0.03462,-10.95790,-34.92239,34.99564,28.67969
18.77810,-0.10648,0.33373,-9.78427,-0.09911,0.05409,-0.02642,-11.31264,-34.90192,33.78959,28.67383
18.80188,-0.11884,0.34807,-9.79786,-0.03811,0.05409,0.03462,-10.96865,-34.58527,35.79545,28.66797
18.81764,-0.12004,0.33963,-9.79136,-0.03811,-0.00692,0.03462,-10.59511,-34.93097,35.39408,28.65820
18.84992,-0.10632,0.32400,-9.79541,-0.03811,0.05409,0.03462,-10.58937,-34.56989,34.57670,28.68359
18.86587,-0.12129,0.32661,-9.81123,0.02287,0.05409,-0.02639,-9.48976,-34.93292,34.97416,28.65625
18.88192,-0.10863,0.34923,-9.79488,0.08396,0.05409,0.03462,-9.85939,-34.58136,34.97239,28.69727
18.90650,-0.10873,0.32852,-9.80885,-0.03811,-0.00692,0.03462,-10.95216,-35.62042,35.01145,28.64453
18.92184,-0.10686,0.34139,-9.78535,-0.16012,0.05409,-0.02639,-10.95199,-34.56183,34.18283,28.68945
18.94580,-0.11633,0.33317,-9.79172,-0.09905,0.05409,-0.02639,-10.22299,-34.92780,34.98166,28.66797
18.96167,-0.12533,0.32321,-9.79531,0.02284,-0.00692,0.09556,-9.47739,-35.97467,34.59324,28.69141
18.98569,-0.11471,0.34309,-9.78924,-0.15990,0.05409,-0.02633,-10.58481,-34.56451,34.17380,28.66016
19.00177,-0.10402,0.33268,-9.80071,0.02289,0.05402,0.03459,-10.59234,-34.92690,34.99769,28.66211
19.02577,-0.10747,0.35447,-9.79717,-0.09906,0.05412,0.03459,-9.86773,-34.24037,35.37660,28.66406
19.04181,-0.11364,0.34839,-9.80147,-0.03720,-0.00606,-0.02642,-10.95074,-34.91225,34.18910,28.69336
19.06576,-0.11781,0.33889,-9.78290,-0.03804,-0.00691,0.03459,-10.59552,-35.99135,36.21840,28.66016
19.08205,-0.10230,0.32577,-9.80954,-0.15908,0.05410,0.03459,-10.95977,-34.21986,34.57582,28.67969
19.10570,-0.10954,0.34156,-9.77292,0.08275,0.05451,-0.02602,-11.33404,-34.93324,35.81117,28.65430
19.12182,-0.11427,0.33608,-9.79335,0.02339,-0.00692,0.03459,-10.22467,-34.57509,34.58461,28.70312
19.14568,-0.11406,0.34268,-9.81832,0.02213,0.05408,0.03459,-10.59503,-34.57779,34.98597,28.68945
19.16171,-0.09986,0.33862,-9.79209,0.02298,0.05367,0.03417,-9.85919,-35.28678,35.38710,28.67383
19.18572,-0.11008,0.34577,-9.80420,-0.03632,0.11339,-0.02299,-9.85498,-34.92691,34.58632,28.66016
19.20246,-0.11036,0.32221,-9.77817,0.08056,0.05410,0.03286,-10.59717,-35.28751,35.80311,28.66211
19.22605,-0.11346,0.33950,-9.79809,-0.09180,0.05410,-0.02644,-10.58864,-35.27530,34.99110,28.64453
19.24161,-0.11346,0.35030,-9.78325,0.07690,0.05410,0.02740,-9.46950,-36.66788,34.19569,28.70117
19.26567,-0.10472,0.33682,-9.78131,-0.09546,0.05058,0.03458,-10.59450,-34.57804,34.97987,28.66992
19.28180,-0.11471,0.34483,-9.77896,0.01586,0.00026,-0.08029,-10.21950,-35.27384,34.60072,28.65430
19.30583,-0.10530,0.34204,-9.78224,-0.15284,0.05409,0.03458,-10.58986,-35.27653,35.00209,28.70117
19.32609,-0.10415,0.34727,-9.78165,0.06945,0.11509,0.03458,-9.12013,-34.57829,34.16957,28.71484
19.34597,-0.12740,0.34935,-9.79175,-0.03791,0.05409,0.02740,-10.23048,-34.93693,35.40199,28.64648
19.36164,-0.10911,0.36436,-9.79624,-0.04142,-0.00341,0.03458,-11.32521,-34.56755,34.59584,28.67969
19.38569,-0.10713,0.35057,-9.80190,-0.05256,0.00773,-0.04111,-10.58644,-34.21232,33.77650,28.66211
19.40185,-0.11485,0.34974,-9.78913,-0.08426,-0.00692,-0.01181,-10.22926,-34.58220,34.99330,28.67773
19.42634,-0.11655,0.34185,-9.78592,0.00875,-0.00692,-0.03363,-10.58644,-34.56640,34.17396,28.67969
19.44993,-0.10093,0.34908,-9.78567,-0.00861,0.11509,0.04919,-10.58696,-34.56680,34.17945,28.65820
19.46567,-0.11356,0.35821,-9.79854,0.00845,0.10044,0.01990,-10.60578,-34.24161,35.78687,28.67578
19.48966,-0.12373,0.34683,-9.78076,0.02310,0.05408,0.03455,-10.22711,-35.28555,35.40211,28.63867
19.50574,-0.10701,0.34256,-9.78616,-0.05259,0.03943,0.03455,-10.96832,-34.93741,35.81300,28.67578
19.53031,-0.11261,0.34387,-9.78292,0.02432,0.08399,0.00465,-10.23346,-33.88370,34.96534,28.68164
19.54569,-0.11421,0.35398,-9.77608,-0.03791,-0.00689,0.03455,-9.87018,-34.59708,35.79053,28.69727
19.56998,-0.11175,0.33247,-9.78902,-0.03791,-0.00689,0.03455,-10.22345,-35.28018,34.99903,28.64258
19.58587,-0.12424,0.35952,-9.81043,-0.03791,0.05411,-0.02646,-9.48908,-35.28535,34.98592,28.65820
19.61002,-0.11597,0.34744,-9.78551,0.02299,-0.00692,0.03459,-9.48465,-35.27839,34.58859,28.69727
19.62769,-0.09626,0.35222,-9.78915,-0.09902,-0.00692,0.03459,-10.23026,-35.29050,35.80539,28.68945
19.64971,-0.11114,0.34930,-9.80211,0.02299,0.05409,0.09562,-10.23411,-34.23777,35.37985,28.69727
19.66560,-0.11469,0.34334,-9.80978,-0.03802,0.05409,-0.02639,-10.96653,-34.93650,35.80734,28.68359
19.68977,-0.08550,0.33606,-9.79442,-0.03802,0.05409,-0.02639,-9.86594,-34.94487,35.79607,28.71875
19.70578,-0.10938,0.33787,-9.79082,-0.09902,0.11512,0.09562,-9.49827,-34.59331,35.38908,28.70312
19.73111,-0.10753,0.35353,-9.81457,0.08396,0.05412,0.03462,-11.33030,-34.22368,34.98796,28.66992
19.74566,-0.10155,0.33613,-9.80562,-0.03805,0.05412,-0.02642,-9.84690,-35.62407,34.58635,28.67969
19.76972,-0.11183,0.33476,-9.76717,0.02296,-0.00689,0.09559,-10.59934,-34.93901,35.80315,28.64648
19.78579,-0.10813,0.32954,-9.80440,-0.03805,-0.00689,0.03459,-10.58820,-35.62944,35.39397,28.65430
19.80990,-0.10698,0.33304,-9.78962,-0.03805,0.11512,-0.02642,-10.23518,-34.59233,35.79387,28.66602
19.82588,-0.11720,0.35752,-9.79260,-0.09905,0.05412,-0.02642,-10.59309,-34.57694,34.97990,28.67773
19.84997,-0.09447,0.33664,-9.79026,-0.03805,0.11512,-0.02642,-10.59692,-34.22880,34.98557,28.68359
19.87372,-0.11180,0.34560,-9.78135,0.02296,-0.00689,-0.02642,-10.58908,-34.57108,34.57688,28.65625
19.88984,-0.09337,0.34675,-9.77551,0.02296,-0.00689,-0.08742,-10.59709,-34.58288,35.38303,28.63477
19.91370,-0.13261,0.35888,-9.79911,-0.09911,0.11512,0.03459,-10.22844,-34.93542,35.39612,28.68164
19.92989,-0.11769,0.35533,-9.80864,0.02290,0.11512,-0.02642,-10.95647,-34.56872,34.58606,28.64844
19.95395,-0.11059,0.34922,-9.78850,0.02290,0.11512,-0.02642,-10.23820,-35.30260,36.61731,28.67773
19.96979,-0.13136,0.34698,-9.81861,-0.09911,0.05409,0.03459,-10.58269,-34.91467,34.18567,28.63477
19.99397,-0.09575,0.34384,-9.78555,0.08387,0.11509,0.03459,-10.58442,-35.26989,34.59998,28.66406
20.00977,-0.11777,0.36350,-9.78383,0.02287,-0.00692,0.09559,-10.58041,-35.26399,34.19666,28.68555
20.03402,-0.09627,0.34743,-9.79563,0.02287,-0.00692,0.03459,-10.59923,-34.93880,35.80408,28.70312
20.04968,-0.11465,0.33798,-9.80485,0.02287,0.05412,0.03459,-10.96178,-33.87141,34.57654,28.69727
20.07379,-0.10998,0.35229,-9.79509,0.02287,0.05412,0.03459,-10.22008,-34.92415,34.59117,28.68359
20.08963,-0.09396,0.36107,-9.77738,0.02287,0.11512,-0.02642,-10.59337,-35.63704,35.81578,28.68164
20.11381,-0.11238,0.33847,-9.78721,-0.09920,0.05412,-0.08745,-10.23497,-34.59309,35.79543,28.67383
20.12991,-0.09805,0.33608,-9.80204,0.08390,0.11512,0.03456,-10.22488,-35.28450,35.39772,28.71484
20.15383,-0.10222,0.34802,-9.80153,-0.09908,0.05412,0.09559,-10.95632,-35.62825,35.41643,28.69922
20.16961,-0.12166,0.34936,-9.79915,0.02293,0.05412,-0.02642,-10.59231,-35.28206,35.40714,28.68750
20.19365,-0.12189,0.33619,-9.76037,-0.03808,0.05412,0.03456,-10.60016,-34.23518,35.38489,28.68359
20.21778,-0.09462,0.35156,-9.77671,-0.09907,0.05412,-0.02645,-10.59792,-34.22886,34.98663,28.68164
20.23423,-0.10055,0.33190,-9.78848,-0.03807,-0.00689,0.03456,-10.59408,-35.28159,35.41216,28.65234
20.25772,-0.10855,0.34388,-9.79731,0.02297,-0.00689,0.03456,-10.58782,-34.92002,34.58892,28.67188
20.27401,-0.09745,0.35344,-9.79323,-0.16002,0.05412,-0.02645,-10.22210,-35.27768,34.99395,28.69727
20.29779,-0.11346,0.36350,-9.77918,-0.03801,-0.00689,-0.02645,-10.59075,-35.63022,35.41216,28.68750
20.31432,-0.11056,0.34341,-9.79605,-0.09901,0.05409,0.09556,-10.22674,-35.28403,35.40288,28.68359
20.33804,-0.11278,0.33678,-9.78607,-0.03813,0.11524,0.03450,-10.95427,-34.56333,34.19487,28.63477
20.35382,-0.12348,0.34832,-9.79882,0.02300,0.11495,-0.02642,-10.22674,-34.93052,35.01079,28.68945
20.37780,-0.11265,0.33930,-9.80780,-0.03822,0.05434,-0.02622,-9.86687,-34.94429,35.80229,28.65820
20.39385,-0.10726,0.32401,-9.78664,0.02321,0.11495,0.03439,-10.58855,-35.97944,35.42876,28.66797
20.41786,-0.12355,0.34487,-9.79437,-0.03822,0.11495,0.03460,-10.96599,-34.58101,35.40472,28.70117
20.43427,-0.10138,0.33087,-9.77530,-0.03802,-0.00670,0.03450,-10.60125,-33.88032,34.99213,28.70312
20.45777,-0.12126,0.33032,-9.76788,0.02131,0.05412,-0.08574,-11.32879,-34.57222,35.00511,28.66602
20.47361,-0.11691,0.34055,-9.79488,-0.09820,0.05412,0.03462,-10.23894,-34.24311,35.78929,28.65234
20.49768,-0.12582,0.32192,-9.77019,0.02302,0.05412,-0.02651,-10.22571,-33.87056,34.17113,28.65820
20.51375,-0.11296,0.35004,-9.78609,0.02129,-0.00517,-0.02813,-9.86242,-34.93794,35.39378,28.71680
20.53807,-0.11920,0.35102,-9.77643,0.08236,0.11428,-0.02557,-10.21154,-35.61518,34.19945,28.65625
20.55423,-0.10579,0.33781,-9.78280,-0.03629,0.05409,-0.02641,-10.58166,-35.26387,34.20316,28.68750
20.57781,-0.11199,0.35051,-9.78884,0.02129,0.05409,0.03459,-10.22741,-34.57978,34.98392,28.64453
20.59370,-0.09989,0.35320,-9.79133,-0.03629,-0.00520,-0.02470,-9.86242,-35.29170,35.79203,28.64453
20.61769,-0.11688,0.34976,-9.80282,-0.11369,0.03945,0.00530,-11.33410,-35.28685,36.21586,28.65234
20.63412,-0.11227,0.35561,-9.78191,0.01583,0.05409,0.04177,-9.85852,-34.93187,34.99125,28.72266
20.65841,-0.10041,0.33931,-9.78460,-0.03629,-0.00520,0.03286,-10.58557,-35.26928,34.60111,28.69336
20.67368,-0.10321,0.34236,-9.77351,0.08401,0.05058,0.03459,-10.24304,-34.24877,36.19389,28.67578
20.69779,-0.10356,0.34630,-9.78938,-0.14573,0.11510,-0.02642,-10.22093,-34.92260,34.58646,28.67188
20.71372,-0.10056,0.33932,-9.78875,-0.04154,-0.06093,0.03810,-10.96360,-34.92963,35.41166,28.66016
20.73775,-0.10666,0.33132,-9.79289,0.05288,0.08397,0.00590,-9.85228,-35.27509,34.59916,28.66797
20.75694,-0.10961,0.32849,-9.79981,-0.06791,0.02419,-0.02642,-10.95775,-35.62690,35.41703,28.64844
20.77785,-0.10797,0.33472,-9.78687,0.01949,0.05408,0.08857,-10.59129,-35.27607,35.02128,28.64453
20.79372,-0.11607,0.33168,-9.78231,-0.00811,0.02295,0.00349,-11.33055,-34.92670,35.41532,28.67383
20.81768,-0.12466,0.32867,-9.79200,0.02299,-0.00692,-0.02645,-10.96052,-35.27903,35.41034,28.66992
20.84184,-0.11065,0.33604,-9.80045,0.06965,0.10795,-0.01927,-10.96348,-35.28409,35.80219,28.67969
20.86142,-0.12678,0.33870,-9.79262,-0.00811,0.02421,-0.02645,-10.22959,-34.93570,35.39740,28.63086
20.88222,-0.10752,0.33903,-9.79215,0.02301,0.02299,0.03456,-10.95957,-34.92463,35.00726,28.67383
20.89777,-0.10233,0.32747,-9.74870,-0.09900,0.05410,-0.02645,-9.85801,-34.93218,34.98479,28.66992
20.92228,-0.09801,0.34147,-9.79853,0.02301,0.05410,-0.02645,-10.96934,-34.58672,35.79680,28.66211
20.93780,-0.11351,0.31869,-9.79304,-0.03800,0.05410,-0.02645,-10.23350,-34.94170,35.80052,28.63477
20.96194,-0.11297,0.32943,-9.78362,-0.09903,-0.00690,0.03456,-10.61387,-34.25274,36.59984,28.63086
20.97776,-0.12184,0.32478,-9.80431,-0.03800,0.05410,0.03456,-10.95762,-35.62774,35.41624,28.66602
21.00295,-0.10343,0.34802,-9.79025,0.14498,0.11511,0.03456,-10.59873,-34.58379,35.39023,28.64648
21.01772,-0.12254,0.33784,-9.78304,-0.03800,0.05410,0.03456,-10.23179,-34.58658,35.38647,28.66211
21.04172,-0.11478,0.33362,-9.79133,-0.03800,0.11511,0.03456,-10.59751,-34.22892,34.98144,28.69336
21.05812,-0.11244,0.35756,-9.77664,0.02301,0.05410,-0.02645,-9.48814,-36.34220,35.80957,28.69141
21.08181,-0.11171,0.30556,-9.79712,-0.03800,0.05410,-0.02645,-11.69517,-34.56876,34.99804,28.67188
21.09782,-0.10044,0.32524,-9.78778,-0.03800,0.05410,-0.02645,-10.21958,-35.27286,34.60205,28.64453
21.12184,-0.11834,0.34439,-9.79608,0.02301,0.05410,-0.02645,-9.85654,-34.22306,34.17285,28.67578
21.13768,-0.12427,0.33485,-9.78474,0.08401,0.05410,-0.02645,-9.86755,-34.23995,35.37109,28.67773
21.16629,-0.10822,0.34561,-9.79854,-0.03800,0.05410,-0.02645,-9.49157,-34.93526,34.98095,28.67383
21.17765,-0.13373,0.31766,-9.81474,0.02301,-0.06791,0.09556,-10.58727,-34.56661,34.18603,28.67773
21.20180,-0.11180,0.34140,-9.78919,0.02301,0.05410,0.03456,-10.60888,-33.89229,35.78759,28.62109
21.21784,-0.10224,0.34079,-9.79371,-0.03800,0.05410,-0.02648,-10.24438,-34.60469,36.60156,28.71680
21.24168,-0.10224,0.34254,-9.78202,-0.09903,0.05410,-0.02648,-10.96606,-34.58142,35.39941,28.66211
21.25829,-0.10224,0.35637,-9.79317,-0.03800,0.05410,-0.02648,-10.23022,-34.23133,34.97192,28.64258
21.28192,-0.10822,0.34374,-9.77904,-0.03800,0.05410,0.03453,-11.33276,-34.57825,35.39746,28.70508
21.29776,-0.10928,0.33312,-9.78901,-0.09900,0.17611,-0.02648,-10.59106,-35.63099,35.41219,28.65820
21.32183,-0.11843,0.36427,-9.78817,-0.03800,0.05410,-0.02648,-10.22069,-35.62830,35.01082,28.71289
21.33770,-0.10283,0.35465,-9.81223,0.08401,0.05410,-0.02648,-10.23656,-34.59314,35.79500,28.68359
21.36197,-0.09416,0.33349,-9.77674,-0.16001,0.05410,0.03453,-10.59203,-34.92713,34.99227,28.65234
21.37808,-0.12962,0.33359,-9.77823,-0.03806,-0.00693,-0.02645,-10.60335,-34.59046,35.79891,28.67383
21.40180,-0.11642,0.32781,-9.78891,-0.03806,0.05407,0.03456,-11.32796,-34.57228,34.98885,28.67383
21.41779,-0.11542,0.33265,-9.79238,-0.09908,-0.00692,0.03459,-10.60542,-34.24025,35.78763,28.73242
21.44178,-0.10368,0.35679,-9.77634,-0.03811,-0.00692,0.03459,-11.32173,-34.91457,34.59720,28.66992
21.45765,-0.10217,0.33934,-9.79076,-0.03764,0.05406,-0.08700,-10.97065,-34.58693,35.80911,28.63281
21.48247,-0.10172,0.35889,-9.78462,-0.03847,-0.00655,0.03465,-10.95880,-34.92311,34.99710,28.64453
21.50588,-0.12539,0.35278,-9.79965,-0.03806,0.05397,-0.02636,-11.33526,-34.22829,35.39310,28.69336
21.52184,-0.10697,0.33162,-9.79071,0.02286,0.05406,-0.02626,-10.95636,-34.21339,34.18021,28.69336
21.54580,-0.11303,0.33839,-9.78970,0.08355,0.05406,0.03466,-10.22589,-35.28272,35.39310,28.66211
21.56183,-0.11472,0.34064,-9.77672,-0.03791,-0.00685,-0.02626,-10.22448,-34.57374,34.58694,28.60742
21.58579,-0.11672,0.34495,-9.79554,-0.03810,0.05367,0.03466,-10.23425,-34.23585,35.37650,28.61914
21.60179,-0.10780,0.32990,-9.78698,-0.03810,-0.00609,-0.02635,-10.59192,-34.92530,34.99368,28.65820
21.62589,-0.12972,0.34885,-9.78472,0.02272,0.05410,0.03456,-10.21961,-35.62598,35.00099,28.67773
21.64179,-0.10890,0.34438,-9.77894,-0.09874,0.11492,0.03466,-9.49890,-34.59083,35.38575,28.68750
21.66622,-0.12261,0.35512,-9.78166,-0.03771,-0.00691,0.03466,-10.60340,-34.23438,35.40280,28.69141
21.68170,-0.12277,0.34037,-9.79938,-0.09893,0.05431,-0.02616,-10.59504,-34.57618,34.98825,28.69531
21.70575,-0.10043,0.32493,-9.77153,0.02211,0.05369,-0.02636,-9.49739,-34.23560,34.97145,28.64062
21.72179,-0.11842,0.35013,-9.78951,0.08311,0.05326,-0.08737,-10.22834,-34.57887,34.98449,28.63672
21.74568,-0.11461,0.34561,-9.79467,0.01945,0.16911,-0.02636,-11.32209,-34.91358,34.59802,28.66992
21.76168,-0.10113,0.33663,-9.78224,0.02125,0.05582,-0.02464,-9.85432,-35.62989,35.01403,28.64258
21.78574,-0.11468,0.34062,-9.78971,-0.03805,0.11161,-0.08387,-10.59260,-33.86622,34.17077,28.69922
21.80166,-0.11198,0.33851,-9.78897,0.01945,0.05412,0.03112,-10.95344,-35.62012,35.00866,28.67383
21.82590,-0.11198,0.32913,-9.80237,-0.03805,0.05412,0.02746,-9.50129,-34.24122,35.37463,28.63867
21.84986,-0.11070,0.33125,-9.77933,-0.04508,0.05060,-0.02287,-11.33235,-34.22178,34.99572,28.66406
21.86587,-0.10355,0.35528,-9.77748,0.02297,0.05412,0.03423,-10.94978,-35.61338,34.60534,28.63086
21.88982,-0.10951,0.34458,-9.78862,0.13448,0.05412,0.03113,-11.32527,-35.62280,35.42126,28.65234
21.90570,-0.11685,0.34458,-9.79176,-0.09733,0.11430,0.09479,-10.95905,-35.62601,35.42315,28.67188
21.92971,-0.11509,0.36675,-9.80917,0.02303,-0.00649,-0.02643,-10.22663,-34.92728,34.99566,28.64062
21.94581,-0.11809,0.34116,-9.80280,0.02131,-0.00518,0.03458,-10.59895,-34.22660,34.98835,28.67383
21.96974,-0.09058,0.35721,-9.79949,0.02303,0.05240,0.03458,-10.22199,-34.92094,34.58699,28.68164
21.98775,-0.10447,0.33926,-9.81065,0.02134,-0.00604,-0.02643,-10.61091,-34.24418,36.19831,28.69531
22.00986,-0.10339,0.33538,-9.80140,-0.03798,0.04697,-0.07309,-10.22248,-34.92094,34.59285,28.65234
22.02577,-0.11278,0.34390,-9.78940,0.05472,0.03946,-0.01179,-10.24019,-34.59836,36.19847,28.63281
22.04986,-0.10693,0.34626,-9.77197,-0.02335,0.10047,-0.02644,-11.71578,-34.59940,37.02562,28.69531
22.06571,-0.10729,0.34527,-9.80936,-0.08466,0.05411,0.03456,-9.85249,-35.62968,35.00218,28.64453
22.09023,-0.11839,0.33659,-9.78693,0.00836,0.00776,-0.02644,-9.49996,-35.30082,36.19651,28.65039
22.10568,-0.11038,0.33739,-9.79342,-0.04520,0.00028,-0.02644,-9.85298,-35.63017,35.00804,28.68750
22.12992,-0.10851,0.36025,-9.79403,-0.03802,-0.00690,-0.01179,-10.23018,-35.28983,35.80735,28.69922
22.14567,-0.11602,0.34363,-9.79068,-0.14538,0.05411,0.00527,-10.59297,-35.28114,35.40794,28.67578
22.16973,-0.12259,0.33958,-9.76529,-0.09902,0.05411,0.03456,-11.32442,-34.56581,34.59788,28.67383
22.18598,-0.11792,0.35001,-9.79541,0.02305,0.02298,0.00467,-10.95870,-34.92348,35.00291,28.63672
22.20986,-0.12326,0.32277,-9.80145,-0.02331,0.11508,0.01992,-10.60274,-35.29408,36.23143,28.66211
22.22579,-0.11479,0.33362,-9.77891,-0.03796,0.05408,-0.02643,-10.58551,-34.21107,33.77830,28.69141
22.24996,-0.11652,0.34030,-9.79849,-0.09899,0.11508,-0.02643,-10.96271,-34.92982,35.40623,28.67773
22.26570,-0.10871,0.34372,-9.77337,-0.08434,0.11508,-0.05814,-10.97125,-34.94203,36.21824,28.71289
22.29290,-0.10689,0.33261,-9.81802,-0.03799,0.05408,-0.02643,-10.22271,-35.27870,35.00633,28.70312
22.30584,-0.12789,0.34745,-9.78607,-0.03799,0.05408,-0.02643,-10.95318,-35.62172,35.01378,28.67578
22.32981,-0.10937,0.32588,-9.78900,0.02305,0.11508,0.03457,-10.59307,-35.28139,35.40783,28.67188
22.35385,-0.10879,0.34263,-9.78728,-0.03796,0.11508,0.03457,-10.96661,-34.58168,35.41183,28.68750
22.36991,-0.10935,0.34089,-9.79734,-0.09899,0.05408,-0.08744,-10.59478,-34.57777,34.99362,28.69531
22.39402,-0.11769,0.32713,-9.79846,0.08399,0.05408,0.03457,-10.59530,-34.57817,34.99922,28.68945
22.40984,-0.11230,0.32355,-9.80496,-0.09899,0.11508,-0.02643,-10.58956,-34.21709,34.18184,28.69922
22.43386,-0.10881,0.36002,-9.79271,0.02302,0.05405,0.03457,-11.32931,-34.92656,35.40449,28.71289
22.44982,-0.12251,0.34449,-9.78422,0.02302,0.05405,-0.02643,-11.32740,-34.21758,34.59248,28.66406
22.47378,-0.10876,0.34750,-9.80149,-0.03799,0.05405,-0.02643,-9.86256,-33.87993,34.57191,28.67969
22.48993,-0.11834,0.33967,-9.79139,-0.09902,0.05405,0.03457,-9.49146,-34.93559,34.98793,28.71680
22.51388,-0.11593,0.34027,-9.80204,-0.03799,0.05405,0.03457,-9.49254,-34.23149,34.56800,28.70703
22.52982,-0.10822,0.34441,-9.78434,-0.03799,0.05405,0.03457,-10.59899,-34.93852,35.79945,28.68164
22.55367,-0.10993,0.35173,-9.81457,-0.09899,-0.00696,-0.02643,-10.22716,-35.63969,35.81247,28.73633
22.56993,-0.11105,0.32494,-9.82460,0.02302,0.05405,-0.02643,-10.95665,-35.27422,35.01901,28.65820
22.59409,-0.10575,0.35656,-9.81638,0.02302,0.05405,-0.02643,-10.22569,-34.93095,35.00595,28.68359
22.60976,-0.11229,0.34637,-9.81842,0.02302,0.05405,0.09557,-10.97228,-34.23906,35.80332,28.70703
22.63386,-0.11059,0.34812,-9.80507,0.02300,0.05409,-0.02644,-10.61395,-34.25245,36.60005,28.66797
22.64978,-0.09806,0.34983,-9.79912,0.02300,-0.00691,-0.02644,-10.24237,-33.89502,35.78999,28.68359
22.67397,-0.09806,0.33199,-9.78213,-0.03797,-0.00691,0.03457,-10.96747,-34.93604,35.81410,28.68555
22.68991,-0.11931,0.33793,-9.80903,0.02300,0.05412,-0.02641,-10.58539,-35.26954,34.60023,28.73047
22.71389,-0.11790,0.33965,-9.78190,-0.03800,0.05412,0.03460,-10.60056,-33.87989,34.98134,28.66406
22.72970,-0.10921,0.32119,-9.80337,-0.09892,-0.00688,-0.02631,-11.33542,-34.22901,35.39760,28.70508
22.75388,-0.11289,0.35625,-9.79816,0.08395,-0.00688,0.03460,-10.95895,-34.92383,35.00160,28.64844
22.76974,-0.12719,0.34747,-9.81851,-0.03800,-0.00688,0.03460,-10.24069,-34.59864,36.20375,28.70508
22.79438,-0.11836,0.33934,-9.79073,-0.09898,0.05400,-0.02628,-10.22608,-35.28370,35.39711,28.69531
22.80975,-0.11423,0.33948,-9.82244,-0.09898,0.11513,0.03463,-10.23496,-34.23780,35.38617,28.71094
22.83388,-0.10582,0.34678,-9.80838,-0.09898,0.05412,0.03463,-10.60361,-34.94434,36.20160,28.68359
22.86615,-0.10627,0.32481,-9.79853,0.02242,0.11473,0.03443,-10.60291,-34.58985,35.79852,28.68359
22.87431,-0.12331,0.35792,-9.78535,-0.03779,0.05412,-0.02640,-9.86219,-34.93848,35.39325,28.70117
22.88977,-0.09508,0.34772,-9.79653,-0.03799,0.05454,-0.02598,-10.59949,-34.23096,35.00897,28.70117
22.91383,-0.12508,0.33095,-9.77897,-0.03799,0.05412,0.03463,-10.60194,-34.23567,35.39545,28.69531
22.92967,-0.10203,0.34388,-9.78868,-0.03799,-0.00648,0.03504,-9.86366,-34.23496,34.97894,28.69336
22.95401,-0.12771,0.34043,-9.80316,0.02262,-0.00648,0.03463,-10.59218,-34.92735,35.00313,28.72070
22.96982,-0.12488,0.33054,-9.82141,-0.09817,0.11431,0.03463,-10.58695,-34.56675,34.19112,28.69727
22.99378,-0.10292,0.32701,-9.79090,-0.09817,0.05373,-0.02555,-10.59166,-34.92710,34.99776,28.68555
23.01156,-0.10893,0.33148,-9.82249,-0.03799,-0.00688,0.08510,-10.22545,-34.93030,34.99960,28.70312
23.03385,-0.09897,0.33183,-9.81221,-0.03884,0.05412,0.03548,-10.58555,-35.27063,34.60556,28.69922
23.05777,-0.10759,0.33895,-9.81372,0.14464,0.05454,0.03464,-10.61204,-33.54407,35.79306,28.71680
23.07422,-0.12401,0.33636,-9.79706,-0.03456,0.05240,-0.02640,-9.85569,-34.57727,34.57040,28.68750
23.09775,-0.11583,0.33183,-9.80877,0.02128,0.05240,0.03290,-10.60179,-34.58979,35.79306,28.68555
23.11422,-0.11275,0.35138,-9.82189,-0.09816,0.05413,0.03546,-10.58349,-34.91547,34.19149,28.71094
23.13781,-0.10492,0.32716,-9.79182,0.02305,0.06131,-0.01922,-10.59150,-34.92727,34.99813,28.73633
23.15371,-0.10943,0.33238,-9.78910,0.06971,0.06131,-0.01204,-10.58192,-35.61916,34.60604,28.72266
23.17786,-0.11915,0.33857,-9.80202,0.03770,0.00775,0.01997,-11.33485,-34.22951,35.39804,28.65820
23.19376,-0.10857,0.34619,-9.80569,-0.01644,-0.06073,-0.01922,-10.23427,-34.94240,35.81259,28.69922
23.21775,-0.11894,0.34312,-9.79183,0.01585,0.10076,0.02745,-10.59535,-34.57839,34.99862,28.69727
23.23388,-0.12097,0.32796,-9.81043,-0.03805,0.00026,-0.01927,-10.23618,-34.59246,35.79511,28.71875
23.25792,-0.10047,0.33943,-9.79756,0.00831,0.14687,-0.02645,-10.23670,-34.59287,35.80082,28.66992
23.27382,-0.11827,0.32968,-9.79712,-0.03805,0.02242,-0.02645,-10.96717,-34.93589,35.80816,28.66602
23.29777,-0.10994,0.34690,-9.80507,0.02296,-0.00688,0.09556,-10.22937,-34.93557,35.39752,28.70117
23.31640,-0.10297,0.35663,-9.79965,-0.09905,0.11513,-0.05629,-9.86194,-34.93795,35.38810,28.68359
23.33769,-0.11208,0.34548,-9.79509,-0.02337,0.00777,0.04930,-9.86940,-35.65425,36.62053,28.73828
23.35369,-0.10992,0.33913,-9.80505,-0.09905,0.11513,-0.02639,-9.86924,-34.59566,35.79142,28.70117
23.37779,-0.09925,0.35101,-9.78857,0.02296,-0.00688,0.03462,-10.22935,-34.93599,35.39738,28.66602
23.39383,-0.10256,0.34433,-9.79233,0.04002,0.05413,-0.02639,-9.85093,-34.92150,34.18937,28.72461
23.41813,-0.11531,0.32590,-9.79254,0.02296,0.11513,-0.02639,-10.23131,-34.23253,34.98869,28.66992
23.43383,-0.10450,0.31757,-9.80734,0.02296,-0.00688,0.03462,-10.22294,-35.27941,35.00528,28.70703
23.45786,-0.10155,0.34274,-9.81162,-0.03805,0.05413,-0.02639,-10.22592,-35.28448,35.39737,28.70312
23.47381,-0.12066,0.35775,-9.81398,0.02296,-0.00688,-0.02639,-9.50326,-34.95293,36.19082,28.67969
23.49787,-0.10457,0.32767,-9.79258,0.02296,-0.00688,0.03462,-9.50047,-35.30181,36.19636,28.71484
23.52195,-0.08897,0.33197,-9.82344,-0.03805,0.05413,-0.02639,-10.58739,-35.62554,35.01472,28.69336
23.53767,-0.11471,0.34870,-9.80389,-0.09908,0.05413,0.03462,-10.59418,-35.28252,35.41242,28.68945
23.56188,-0.13206,0.34450,-9.79258,0.02299,0.17614,0.03462,-9.85981,-35.28770,35.39925,28.70508
23.57786,-0.10638,0.32774,-9.79024,-0.09902,0.05413,-0.02639,-10.22724,-35.28532,35.40866,28.69727
23.60191,-0.11474,0.34564,-9.79439,-0.03801,0.05413,0.03462,-9.84882,-34.21207,33.37155,28.68359
23.62081,-0.11114,0.35231,-9.80805,-0.03801,0.05413,-0.02639,-9.85598,-35.28141,34.99557,28.69141
23.64187,-0.11287,0.34517,-9.81927,0.08399,-0.00688,0.09562,-11.33449,-34.93302,35.81149,28.70703
23.65778,-0.11287,0.32532,-9.80086,-0.03801,0.05413,-0.08736,-10.97365,-34.23820,35.80238,28.69336
23.68187,-0.11759,0.34162,-9.82873,-0.03801,-0.00688,0.09562,-10.59792,-35.28703,35.80951,28.67578
23.69782,-0.12658,0.32289,-9.78191,-0.09902,-0.00688,-0.02639,-9.86061,-34.22843,34.57611,28.74219
23.72220,-0.10760,0.34037,-9.80566,-0.03801,0.05413,0.09562,-10.58034,-34.90861,33.78265,28.69141
23.73775,-0.11152,0.31581,-9.82255,-0.09899,0.11516,-0.02633,-10.22536,-34.57511,34.59076,28.67383
23.76185,-0.11534,0.34079,-9.78144,0.02302,-0.00685,-0.02640,-9.49977,-34.59248,35.38959,28.71875
23.77778,-0.10634,0.32105,-9.78615,0.02302,0.05416,-0.02640,-10.96364,-34.92939,35.39885,28.67188
23.80183,-0.11049,0.32592,-9.80727,-0.03795,0.11519,-0.02640,-10.96312,-35.63398,35.82463,28.70508
23.81828,-0.11764,0.33670,-9.78840,0.02305,-0.00682,-0.02640,-10.96505,-33.87128,34.58733,28.70312
23.84187,-0.10810,0.33491,-9.79965,-0.03803,0.05413,0.03459,-9.50104,-34.24313,35.37870,28.72461
23.87442,-0.09745,0.33480,-9.79560,0.08398,-0.00691,-0.02642,-10.95611,-34.91940,34.61503,28.68945
23.88214,-0.10275,0.32651,-9.80322,0.08398,-0.00691,0.03459,-10.60016,-34.93906,35.81034,28.65820
23.90596,-0.10216,0.31629,-9.79140,-0.03809,0.05410,-0.02642,-9.48590,-34.57456,34.17460,28.73047
23.92192,-0.10759,0.33429,-9.80206,0.02291,0.05410,0.03459,-9.86236,-34.93882,35.39921,28.69922
24.44990,-0.11600,0.32977,-9.79325,0.02299,0.11495,-0.02625,-10.59635,-34.93279,35.40105,28.74219
24.46591,-0.11214,0.33387,-9.78604,0.02127,0.05413,0.03458,-10.22379,-34.57439,34.57976,28.69141
24.48994,-0.11062,0.34216,-9.79925,-0.09555,-0.00691,0.03458,-10.96403,-35.28436,35.80730,28.70117
24.50586,-0.10763,0.33868,-9.81536,-0.14954,0.05059,-0.02292,-10.21744,-35.97625,35.00994,28.68750
24.52997,-0.10929,0.34173,-9.77099,-0.04151,0.05411,-0.02471,-10.22581,-34.92937,34.99335,28.66016
24.54808,-0.10893,0.35336,-9.80651,-0.03806,0.05411,-0.02644,-11.32249,-35.26946,35.00456,28.70898
24.56990,-0.11912,0.34672,-9.79710,0.01943,0.05059,-0.02292,-10.60472,-34.94476,36.21257,28.71680
24.58582,-0.11559,0.34321,-9.77928,0.03013,0.05411,-0.02644,-10.59774,-34.93378,35.41716,28.65234
24.61019,-0.11072,0.35504,-9.78903,0.01577,0.06128,0.02022,-10.96346,-34.57612,35.01188,28.70703
24.62577,-0.11297,0.35062,-9.80664,0.02295,-0.00689,-0.01179,-10.59774,-34.22871,34.98579,28.70117
24.65021,-0.11573,0.33763,-9.79596,-0.00572,0.05411,0.00468,-10.21786,-34.91767,34.19233,28.74609
24.66595,-0.09444,0.34563,-9.79446,0.02297,0.05411,0.09556,-10.59262,-34.92667,35.00288,28.68359
24.69015,-0.11165,0.34806,-9.82251,-0.00694,0.02422,0.03452,-10.23324,-34.94085,35.79976,28.71289
24.70582,-0.11281,0.34197,-9.79776,-0.06917,0.02300,0.00463,-10.22923,-34.93495,35.39643,28.70117
24.73062,-0.10174,0.34011,-9.81160,-0.04509,0.05413,0.03805,-10.94847,-35.26088,34.20503,28.71875
24.74688,-0.11109,0.34153,-9.81160,-0.09907,0.05413,0.03453,-10.23900,-34.24330,35.79390,28.68359
24.76982,-0.10991,0.35171,-9.81160,-0.03804,0.11513,-0.02651,-10.58714,-34.91957,34.58784,28.73047
24.78593,-0.11529,0.35473,-9.81101,-0.03804,0.05413,-0.02651,-10.58940,-35.27528,35.00776,28.68359
24.80991,-0.10702,0.35640,-9.78734,-0.03804,0.05413,0.03450,-10.22905,-34.58095,35.00415,28.68359
24.82586,-0.12480,0.32839,-9.81322,-0.09904,0.11513,-0.02654,-9.86088,-34.93642,35.38110,28.70703
24.85309,-0.11295,0.34384,-9.79201,0.02297,0.05413,-0.02654,-10.22465,-34.92855,34.99292,28.70898
24.88219,-0.11499,0.33202,-9.80845,-0.00815,-0.00688,0.03447,-10.58915,-35.27499,35.00781,28.72070
24.88992,-0.10075,0.32828,-9.79658,0.04004,0.05413,-0.02654,-10.97245,-34.59139,36.19824,28.73242
24.91410,-0.10577,0.33119,-9.81463,-0.09900,0.03948,-0.04118,-9.85917,-35.28622,35.39746,28.70508
24.92976,-0.10749,0.32354,-9.80734,0.02301,0.05413,0.03450,-10.21513,-35.62045,34.60009,28.68164
24.95751,-0.11671,0.34325,-9.78912,-0.03799,-0.00688,0.03450,-10.96074,-34.92464,35.02221,28.66797
24.96984,-0.10497,0.33834,-9.80571,-0.12887,0.08523,0.00337,-10.58378,-34.91400,34.18969,28.67969
24.99390,-0.11053,0.33487,-9.79492,0.02298,0.05411,-0.08751,-9.85868,-34.93179,34.99438,28.71484
